Folder: CH302/instrument_data/TGA (part 4)

File: Co(phen)2(SCN)2 electromagnet RT-40011142022(1).csv
Filename,Co(phen)2(SCN)2 electromagnet RT-40011142022(1)
Instrument name,5500-0566 (192.168.10.4)
Operator,Adam K
rundate,11/14/2022
Sample name,Co(phen)2(SCN)2 electromagnet RT-400
proceduresegments,Equilibrate 110.00 °C; Isothermal 1.0 min; Electromagnet On 50.0 %; Ramp 10.00 °C/min to 400.00 °C
[File Parameters]
Run date,11/14/2022 4:45:04 PM
Trios version,5.3.0.48151
Original File Name,C:\ProgramData\TA Instruments\TRIOS\Data\CH302_B3_22_AK\Co(phen)2(SCN)2 electromagnet RT-40011142022(1).tri
Current File Name,C:/ProgramData/TA Instruments/TRIOS/Data/CH302_B3_22_AK/Co(phen)2(SCN)2 electromagnet RT-40011142022(1).tri
User at run start,CH-CBWNNF3-0721\ChemLocal
[Procedure]
Procedure Name,
Sample Name,Co(phen)2(SCN)2 electromagnet RT-400
Pan Number,10
Sample Mass,7.131 mg
Pan Type,Aluminum
Comments,
Project Name,Spin Crossover
Operator,Adam K
Test,Custom
Skip Weight Stabilization,False
Sample mass pre-weigh,Not Available
Stop on Gas Flow Error,No
[Signal List]
Signal #1,Time (min)
Signal #2,Temperature (°C)
Signal #3,Weight (mg)
Signal #4,Temperature Difference (°C)
Signal #5,Sample Purge (mL/min)
Signal #6,Balance Purge (mL/min)
Signal #7,Set Point Temperature (°C)
Signal #8,Power Delivered (W)
Signal #9,Ramp Rate (°C/min)
[Configuration]
Company Name,localcc
Instrument Name,5500-0566
Instrument Type,TGA5500
Serial Number,5500-0566
IP,192.168.10.4
Location of Instrument,Olin Hall Rm 364
DisplayType,TianmaV2
Sample Interval ,0.1 s/pt
Gas 1,Nitrogen
Gas 2,Air
Selected Gas Channel,1
MTGA HiRes Licensed,Yes
[Versions]
Common IDD Version,1
Cortex Version,VER 2.1.2.60
Driver,5.0.0.6
GDM Version,1.2.1.2
TouchscreenVersion,1.0.3.1795
PCU Version,1.2.0.15
Transducer Version,1.1.0.32
[Experiment Logs]
Experiment Log Entry # 1,Equilibrate Segment 110 (C) Started
Experiment Log Entry # 3,Isothermal Segment 1 min started
Experiment Log Entry # 5,"Curie Magnet Segment enable 1, 50 %"
Experiment Log Entry # 7,Ramp Segment 10 C/min to 400 C Started
[Method Log]
Method Log Entry # 1,Equilibrate 110 °C
Method Log Entry # 2,Isothermal 1 minutes
Method Log Entry # 3,Electromagnet On 50 %
Method Log Entry # 4,(Ramp 10336) Ramp 10 °C/minute to 400 °C
[Weight Calibration]
Date Applied,7/20/2022 10:21:44 AM
Empty Pan Number,23
Empty Pan Weight,341.358 mg
Low Reference Weight Pan Number,24
Low Reference Weight,442.546 mg
High Reference Weight Pan Number,25
High Reference Weight,"1,243.774 mg"
Low Gain Meter Reading,9.9772E-006 mg/count
High Gain Meter Reading,7.9459E-005 mg/count
Low Meter Offset,31.8759 mg
High Meter Offset,613.7978 mg
[Curie Calibration]
Date Applied,8/11/2021 12:40:46 PM
Description,From 256.990 °C to 456.990 °C at 20.000°C/min
Gas Type,Nitrogen
Pan Type,Platinum (100 uL)
Source Files 1,C:\ProgramData\TA Instruments\TRIOS\Data\Nickel Calibration.tri
Source Files 2,C:\ProgramData\TA Instruments\TRIOS\Data\Alumel Calibration.tri
Measured 1,158.9083
Known 1,154.16
Measured 2,358.1255
Known 2,356.99
[step]
Isothermal 1.0 min
Time,Temperature,Weight,Weight
min,°C,mg,%
0.00,110.16,7.067,99.105
0.00,110.16,7.067,99.105
0.01,110.16,7.067,99.105
0.01,110.17,7.067,99.105
0.01,110.17,7.067,99.105
0.02,110.17,7.067,99.104
0.02,110.17,7.067,99.104
0.02,110.18,7.067,99.104
0.03,110.18,7.067,99.103
0.03,110.18,7.067,99.103
0.03,110.18,7.067,99.103
0.04,110.19,7.067,99.103
0.04,110.19,7.067,99.103
0.04,110.19,7.067,99.102
0.05,110.19,7.067,99.102
0.05,110.20,7.067,99.102
0.05,110.20,7.067,99.102
0.06,110.20,7.067,99.102
0.06,110.20,7.067,99.102
0.06,110.21,7.067,99.102
0.07,110.21,7.067,99.101
0.07,110.21,7.067,99.101
0.07,110.21,7.067,99.101
0.08,110.22,7.067,99.101
0.08,110.22,7.067,99.100
0.08,110.22,7.067,99.100
0.09,110.22,7.067,99.100
0.09,110.22,7.067,99.100
0.09,110.23,7.067,99.099
0.10,110.23,7.067,99.099
0.10,110.23,7.067,99.099
0.10,110.23,7.067,99.099
0.11,110.24,7.067,99.098
0.11,110.24,7.066,99.098
0.11,110.24,7.066,99.098
0.12,110.24,7.066,99.097
0.12,110.24,7.066,99.097
0.12,110.25,7.066,99.096
0.13,110.25,7.066,99.096
0.13,110.25,7.066,99.096
0.13,110.25,7.066,99.095
0.14,110.25,7.066,99.095
0.14,110.26,7.066,99.094
0.14,110.26,7.066,99.094
0.15,110.26,7.066,99.094
0.15,110.26,7.066,99.093
0.15,110.26,7.066,99.093
0.16,110.27,7.066,99.092
0.16,110.27,7.066,99.092
0.16,110.27,7.066,99.092
0.17,110.27,7.066,99.092
0.17,110.27,7.066,99.092
0.17,110.28,7.066,99.092
0.18,110.28,7.066,99.091
0.18,110.28,7.066,99.091
0.18,110.28,7.066,99.091
0.19,110.28,7.066,99.090
0.19,110.28,7.066,99.090
0.19,110.29,7.066,99.090
0.20,110.29,7.066,99.089
0.20,110.29,7.066,99.089
0.20,110.29,7.066,99.089
0.21,110.29,7.066,99.089
0.21,110.30,7.066,99.088
0.21,110.30,7.066,99.088
0.22,110.30,7.066,99.088
0.22,110.30,7.066,99.088
0.22,110.30,7.066,99.088
0.23,110.30,7.066,99.088
0.23,110.30,7.066,99.087
0.23,110.31,7.066,99.087
0.24,110.31,7.066,99.086
0.24,110.31,7.066,99.086
0.24,110.31,7.066,99.086
0.25,110.31,7.066,99.086
0.25,110.31,7.066,99.086
0.25,110.32,7.066,99.085
0.26,110.32,7.066,99.085
0.26,110.32,7.066,99.085
0.26,110.32,7.066,99.084
0.27,110.32,7.065,99.084
0.27,110.32,7.065,99.084
0.27,110.32,7.065,99.084
0.28,110.33,7.065,99.083
0.28,110.33,7.065,99.083
0.28,110.33,7.065,99.083
0.29,110.33,7.065,99.083
0.29,110.33,7.065,99.082
0.29,110.33,7.065,99.082
0.30,110.33,7.065,99.082
0.30,110.34,7.065,99.082
0.30,110.34,7.065,99.081
0.31,110.34,7.065,99.082
0.31,110.34,7.065,99.081
0.31,110.34,7.065,99.081
0.32,110.34,7.065,99.080
0.32,110.34,7.065,99.080
0.32,110.34,7.065,99.080
0.33,110.35,7.065,99.079
0.33,110.35,7.065,99.079
0.33,110.35,7.065,99.079
0.34,110.35,7.065,99.079
0.34,110.35,7.065,99.079
0.34,110.35,7.065,99.078
0.35,110.35,7.065,99.078
0.35,110.35,7.065,99.078
0.35,110.35,7.065,99.078
0.36,110.36,7.065,99.078
0.36,110.36,7.065,99.078
0.36,110.36,7.065,99.078
0.37,110.36,7.065,99.078
0.37,110.36,7.065,99.078
0.37,110.36,7.065,99.078
0.38,110.36,7.065,99.078
0.38,110.36,7.065,99.078
0.38,110.36,7.065,99.077
0.39,110.36,7.065,99.077
0.39,110.37,7.065,99.077
0.39,110.37,7.065,99.077
0.40,110.37,7.065,99.077
0.40,110.37,7.065,99.076
0.40,110.37,7.065,99.076
0.41,110.37,7.065,99.076
0.41,110.37,7.065,99.076
0.41,110.37,7.065,99.076
0.42,110.37,7.065,99.075
0.42,110.37,7.065,99.075
0.42,110.38,7.065,99.075
0.43,110.38,7.065,99.075
0.43,110.38,7.065,99.075
0.43,110.38,7.065,99.075
0.44,110.38,7.065,99.075
0.44,110.38,7.065,99.074
0.44,110.38,7.065,99.074
0.45,110.38,7.065,99.074
0.45,110.38,7.065,99.074
0.45,110.38,7.065,99.074
0.46,110.38,7.065,99.074
0.46,110.38,7.065,99.074
0.46,110.39,7.065,99.074
0.47,110.39,7.065,99.073
0.47,110.39,7.065,99.073
0.47,110.39,7.065,99.073
0.48,110.39,7.065,99.073
0.48,110.39,7.065,99.073
0.48,110.39,7.065,99.073
0.49,110.39,7.065,99.073
0.49,110.39,7.065,99.072
0.49,110.39,7.065,99.072
0.50,110.39,7.065,99.072
0.50,110.39,7.065,99.072
0.50,110.39,7.065,99.071
0.51,110.40,7.065,99.071
0.51,110.40,7.065,99.071
0.51,110.40,7.065,99.070
0.52,110.40,7.065,99.070
0.52,110.40,7.065,99.070
0.52,110.40,7.065,99.070
0.53,110.40,7.065,99.070
0.53,110.40,7.064,99.070
0.53,110.40,7.064,99.070
0.54,110.40,7.064,99.070
0.54,110.40,7.064,99.069
0.54,110.40,7.064,99.069
0.55,110.40,7.064,99.069
0.55,110.40,7.064,99.069
0.55,110.40,7.064,99.069
0.56,110.41,7.064,99.069
0.56,110.41,7.064,99.069
0.56,110.41,7.064,99.068
0.57,110.41,7.064,99.068
0.57,110.41,7.064,99.068
[...]
19.37,291.19,7.164,100.466,-0.0104995
19.48,292.29,7.164,100.462,-9.02523e-3
19.59,293.39,7.163,100.455,-0.0108974
19.70,294.49,7.163,100.450,-1.32960e-3
19.81,295.59,7.163,100.447,-5.68064e-3
19.92,296.68,7.162,100.442,7.33053e-4
20.03,297.78,7.162,100.435,6.12642e-3
20.14,298.89,7.162,100.431,0.0134741
20.25,299.98,7.161,100.429,6.18373e-3
20.36,301.08,7.161,100.423,-9.11657e-3
20.47,302.19,7.161,100.420,-1.37325e-4
20.58,303.29,7.160,100.416,-3.33501e-3
20.69,304.39,7.160,100.413,-0.0162088
20.80,305.49,7.160,100.406,-8.77514e-3
20.91,306.59,7.160,100.403,-8.72554e-4
21.02,307.69,7.159,100.396,4.15519e-3
21.13,308.79,7.159,100.391,-7.42781e-3
21.24,309.89,7.158,100.385,-5.85697e-3
21.35,310.99,7.158,100.376,-9.77064e-3
21.46,312.09,7.157,100.368,-0.0136954
21.57,313.19,7.157,100.362,-1.37311e-3
21.68,314.29,7.156,100.356,-5.12821e-3
21.79,315.39,7.156,100.347,4.71612e-3
21.90,316.48,7.155,100.340,-7.47250e-3
22.01,317.58,7.154,100.329,-7.37503e-3
22.12,318.68,7.154,100.321,-0.0178571
22.23,319.78,7.153,100.312,-6.32607e-3
22.34,320.88,7.152,100.301,-0.0168621
22.45,321.98,7.151,100.288,-7.74195e-3
22.56,323.08,7.151,100.279,0.0101209
22.67,324.18,7.150,100.265,-0.0182858
22.78,325.28,7.149,100.250,-5.94842e-3
22.89,326.38,7.148,100.237,-0.0129358
23.00,327.48,7.147,100.224,-0.0219231
23.11,328.58,7.146,100.212,-8.29476e-3
23.22,329.68,7.145,100.194,-0.0105834
23.33,330.78,7.143,100.177,-0.0163383
23.44,331.88,7.142,100.156,-0.0203297
23.55,332.98,7.141,100.137,-0.0257516
23.66,334.07,7.139,100.117,-0.0255274
23.77,335.17,7.137,100.091,-0.0355776
23.88,336.27,7.136,100.067,-0.0224884
23.99,337.37,7.134,100.039,-0.0254579
24.10,338.47,7.132,100.012,-0.0301114
24.21,339.57,7.129,99.981,-0.0299899
24.32,340.67,7.127,99.946,-0.0228342
24.43,341.77,7.124,99.910,-0.0377064
24.54,342.87,7.121,99.866,-0.0407051
24.65,343.97,7.118,99.820,-0.0368837
24.76,345.07,7.114,99.771,-0.0382567
24.87,346.17,7.110,99.710,-0.0617443
24.98,347.27,7.105,99.643,-0.0557378
25.09,348.37,7.100,99.568,-0.0700549
25.20,349.47,7.094,99.477,-0.0748988
25.31,350.57,7.086,99.376,-0.0874771
25.42,351.67,7.078,99.262,-0.0984447
25.53,352.76,7.069,99.138,-0.215413
25.64,353.86,7.060,99.009,-0.137257
25.75,354.96,7.049,98.846,-0.136538
25.86,356.06,7.036,98.676,-0.110883
25.97,357.16,7.024,98.496,-0.111096
26.08,358.26,7.009,98.290,-0.254752
26.19,359.36,6.993,98.074,-0.123328
26.30,360.46,6.978,97.863,-0.140733
26.41,361.56,6.960,97.609,-0.172718
26.52,362.66,6.943,97.371,-0.189499
26.63,363.76,6.924,97.104,-0.137373
26.74,364.86,6.905,96.830,-0.353046
26.85,365.96,6.884,96.544,-0.250092
26.96,367.06,6.862,96.237,-0.158358
27.07,368.16,6.839,95.913,-0.195604
27.18,369.26,6.817,95.594,-0.220020
27.29,370.36,6.794,95.275,-0.479336
27.40,371.45,6.768,94.910,-0.219083
27.51,372.55,6.743,94.568,-0.208883
27.62,373.65,6.716,94.182,-0.388893
27.73,374.75,6.691,93.830,-0.292100
27.84,375.85,6.661,93.417,-0.203610
27.95,376.95,6.633,93.014,-0.427259
28.06,378.05,6.602,92.581,-0.481697
28.17,379.15,6.571,92.149,-0.375641
28.28,380.25,6.539,91.708,-0.621630
28.39,381.34,6.507,91.252,-0.458687
28.50,382.44,6.473,90.777,-0.337821
28.61,383.54,6.438,90.280,-0.386767
28.72,384.64,6.402,89.783,-0.410211
28.83,385.74,6.366,89.277,-0.577580
28.94,386.84,6.328,88.742,-0.437222
29.05,387.94,6.289,88.201,-0.453297
29.16,389.04,6.251,87.659,-0.604447
29.27,390.14,6.210,87.087,-0.625469
29.38,391.24,6.169,86.513,-0.419724
29.49,392.34,6.127,85.924,-0.375687
29.60,393.44,6.084,85.314,-0.564935
29.71,394.54,6.040,84.698,-0.410173
29.82,395.64,5.992,84.034,-1.26509
29.93,396.74,5.946,83.390,-0.293930
29.95,396.95,5.939,83.280,-0.700056

File: Co(phen)2(SCN)2 electromagnet RT-40011142022.csv
Filename,Co(phen)2(SCN)2 electromagnet RT-40011142022
Instrument name,5500-0566 (192.168.10.4)
Operator,Adam K
rundate,11/14/2022
Sample name,Co(phen)2(SCN)2 electromagnet RT-400
proceduresegments,Equilibrate 110.00 °C; Isothermal 1.0 min; Electromagnet On 50.0 %; Ramp 60.00 °C/min to 400.00 °C
[File Parameters]
Run date,11/14/2022 4:16:59 PM
Trios version,5.3.0.48151
Original File Name,C:\ProgramData\TA Instruments\TRIOS\Data\CH302_B3_22_AK\Co(phen)2(SCN)2 electromagnet RT-40011142022.tri
Current File Name,C:/ProgramData/TA Instruments/TRIOS/Data/CH302_B3_22_AK/Co(phen)2(SCN)2 electromagnet RT-40011142022.tri
User at run start,CH-CBWNNF3-0721\ChemLocal
[Procedure]
Procedure Name,
Sample Name,Co(phen)2(SCN)2 electromagnet RT-400
Pan Number,4
Sample Mass,5.824 mg
Pan Type,Aluminum
Comments,
Project Name,Spin Crossover
Operator,Adam K
Test,Custom
Skip Weight Stabilization,False
Sample mass pre-weigh,Not Available
Stop on Gas Flow Error,No
[Signal List]
Signal #1,Time (min)
Signal #2,Temperature (°C)
Signal #3,Weight (mg)
Signal #4,Temperature Difference (°C)
Signal #5,Sample Purge (mL/min)
Signal #6,Balance Purge (mL/min)
Signal #7,Set Point Temperature (°C)
Signal #8,Power Delivered (W)
Signal #9,Ramp Rate (°C/min)
[Configuration]
Company Name,localcc
Instrument Name,5500-0566
Instrument Type,TGA5500
Serial Number,5500-0566
IP,192.168.10.4
Location of Instrument,Olin Hall Rm 364
DisplayType,TianmaV2
Sample Interval ,0.1 s/pt
Gas 1,Nitrogen
Gas 2,Air
Selected Gas Channel,1
MTGA HiRes Licensed,Yes
[Versions]
Common IDD Version,1
Cortex Version,VER 2.1.2.60
Driver,5.0.0.6
GDM Version,1.2.1.2
TouchscreenVersion,1.0.3.1795
PCU Version,1.2.0.15
Transducer Version,1.1.0.32
[Experiment Logs]
Experiment Log Entry # 1,Equilibrate Segment 110 (C) Started
Experiment Log Entry # 3,Isothermal Segment 1 min started
Experiment Log Entry # 5,"Curie Magnet Segment enable 1, 50 %"
Experiment Log Entry # 7,Ramp Segment 60 C/min to 400 C Started
[Method Log]
Method Log Entry # 1,Equilibrate 110 °C
Method Log Entry # 2,Isothermal 1 minutes
Method Log Entry # 3,Electromagnet On 50 %
Method Log Entry # 4,(Ramp 9011) Ramp 60 °C/minute to 400 °C
[Weight Calibration]
Date Applied,7/20/2022 10:21:44 AM
Empty Pan Number,23
Empty Pan Weight,341.358 mg
Low Reference Weight Pan Number,24
Low Reference Weight,442.546 mg
High Reference Weight Pan Number,25
High Reference Weight,"1,243.774 mg"
Low Gain Meter Reading,9.9772E-006 mg/count
High Gain Meter Reading,7.9459E-005 mg/count
Low Meter Offset,31.8759 mg
High Meter Offset,613.7978 mg
[Curie Calibration]
Date Applied,8/11/2021 12:40:46 PM
Description,From 256.990 °C to 456.990 °C at 20.000°C/min
Gas Type,Nitrogen
Pan Type,Platinum (100 uL)
Source Files 1,C:\ProgramData\TA Instruments\TRIOS\Data\Nickel Calibration.tri
Source Files 2,C:\ProgramData\TA Instruments\TRIOS\Data\Alumel Calibration.tri
Measured 1,158.9083
Known 1,154.16
Measured 2,358.1255
Known 2,356.99
[step]
Isothermal 1.0 min
Time,Temperature,Weight,Weight
min,°C,mg,%
0.00,110.16,5.775,99.161
0.00,110.16,5.775,99.160
0.01,110.17,5.775,99.160
0.01,110.17,5.775,99.159
0.01,110.17,5.775,99.159
0.02,110.18,5.775,99.159
0.02,110.18,5.775,99.159
0.02,110.18,5.775,99.158
0.03,110.18,5.775,99.158
0.03,110.19,5.775,99.158
0.03,110.19,5.775,99.157
0.04,110.19,5.775,99.157
0.04,110.19,5.775,99.156
0.04,110.20,5.775,99.156
0.05,110.20,5.775,99.156
0.05,110.20,5.775,99.156
0.05,110.20,5.775,99.156
0.06,110.20,5.775,99.155
0.06,110.21,5.775,99.155
0.06,110.21,5.775,99.155
0.07,110.21,5.775,99.155
0.07,110.21,5.775,99.154
0.07,110.22,5.775,99.154
0.08,110.22,5.775,99.154
0.08,110.22,5.775,99.153
0.08,110.22,5.775,99.153
0.09,110.23,5.775,99.153
0.09,110.23,5.775,99.153
0.09,110.23,5.775,99.153
0.10,110.23,5.775,99.153
0.10,110.23,5.775,99.153
0.10,110.24,5.775,99.152
0.11,110.24,5.775,99.152
0.11,110.24,5.775,99.152
0.11,110.24,5.775,99.152
0.12,110.24,5.775,99.151
0.12,110.25,5.775,99.152
0.12,110.25,5.775,99.152
0.13,110.25,5.775,99.151
0.13,110.25,5.775,99.151
0.13,110.25,5.775,99.151
0.14,110.26,5.775,99.151
0.14,110.26,5.775,99.150
0.14,110.26,5.775,99.150
0.15,110.26,5.775,99.150
0.15,110.26,5.775,99.150
0.15,110.27,5.774,99.149
0.16,110.27,5.774,99.149
0.16,110.27,5.774,99.149
0.16,110.27,5.774,99.149
0.17,110.27,5.774,99.148
0.17,110.28,5.774,99.148
0.17,110.28,5.774,99.148
0.18,110.28,5.774,99.148
0.18,110.28,5.774,99.148
0.18,110.28,5.774,99.147
0.19,110.28,5.774,99.147
0.19,110.29,5.774,99.146
0.19,110.29,5.774,99.146
0.20,110.29,5.774,99.146
0.20,110.29,5.774,99.146
0.20,110.29,5.774,99.145
0.21,110.30,5.774,99.146
0.21,110.30,5.774,99.145
0.21,110.30,5.774,99.145
0.22,110.30,5.774,99.145
0.22,110.30,5.774,99.145
0.22,110.30,5.774,99.144
0.23,110.31,5.774,99.144
0.23,110.31,5.774,99.143
0.23,110.31,5.774,99.143
0.24,110.31,5.774,99.143
0.24,110.31,5.774,99.144
0.24,110.31,5.774,99.143
0.25,110.31,5.774,99.142
0.25,110.32,5.774,99.142
0.25,110.32,5.774,99.142
0.26,110.32,5.774,99.141
0.26,110.32,5.774,99.142
0.26,110.32,5.774,99.142
0.27,110.32,5.774,99.141
0.27,110.33,5.774,99.141
0.27,110.33,5.774,99.141
0.28,110.33,5.774,99.141
0.28,110.33,5.774,99.141
0.28,110.33,5.774,99.141
0.29,110.33,5.774,99.141
0.29,110.33,5.774,99.141
0.29,110.34,5.774,99.141
0.30,110.34,5.774,99.141
0.30,110.34,5.774,99.141
0.30,110.34,5.774,99.141
0.31,110.34,5.774,99.140
0.31,110.34,5.774,99.140
0.31,110.34,5.774,99.140
0.32,110.35,5.774,99.140
0.32,110.35,5.774,99.140
0.32,110.35,5.774,99.140
0.33,110.35,5.774,99.140
0.33,110.35,5.774,99.140
0.33,110.35,5.774,99.140
0.34,110.35,5.774,99.140
0.34,110.35,5.774,99.140
0.34,110.36,5.774,99.139
0.35,110.36,5.774,99.139
0.35,110.36,5.774,99.138
0.35,110.36,5.774,99.138
0.36,110.36,5.774,99.138
0.36,110.36,5.774,99.138
0.36,110.36,5.774,99.138
0.37,110.36,5.774,99.138
0.37,110.36,5.774,99.138
0.37,110.37,5.774,99.137
0.38,110.37,5.774,99.137
0.38,110.37,5.774,99.137
0.38,110.37,5.774,99.137
0.39,110.37,5.774,99.136
0.39,110.37,5.774,99.136
0.39,110.37,5.774,99.136
0.40,110.37,5.774,99.136
0.40,110.37,5.774,99.136
0.40,110.38,5.774,99.135
0.41,110.38,5.774,99.135
0.41,110.38,5.774,99.135
0.41,110.38,5.774,99.135
0.42,110.38,5.774,99.134
0.42,110.38,5.774,99.134
0.42,110.38,5.774,99.134
0.43,110.38,5.774,99.134
0.43,110.38,5.774,99.134
0.43,110.38,5.774,99.134
0.44,110.39,5.774,99.134
0.44,110.39,5.774,99.133
0.44,110.39,5.774,99.133
0.45,110.39,5.774,99.133
0.45,110.39,5.773,99.132
0.45,110.39,5.773,99.132
0.46,110.39,5.773,99.132
0.46,110.39,5.773,99.132
0.46,110.39,5.773,99.132
0.47,110.39,5.773,99.132
0.47,110.39,5.773,99.131
0.47,110.40,5.773,99.131
0.48,110.40,5.773,99.131
0.48,110.40,5.773,99.131
0.48,110.40,5.773,99.130
0.49,110.40,5.773,99.130
0.49,110.40,5.773,99.130
0.49,110.40,5.773,99.131
0.50,110.40,5.773,99.131
0.50,110.40,5.773,99.130
0.50,110.40,5.773,99.130
0.51,110.40,5.773,99.130
0.51,110.40,5.773,99.131
0.51,110.40,5.773,99.131
0.52,110.41,5.773,99.130
0.52,110.41,5.773,99.130
0.52,110.41,5.773,99.130
0.53,110.41,5.773,99.130
0.53,110.41,5.773,99.129
0.53,110.41,5.773,99.129
0.54,110.41,5.773,99.129
0.54,110.41,5.773,99.129
0.54,110.41,5.773,99.129
0.55,110.41,5.773,99.128
0.55,110.41,5.773,99.128
0.55,110.41,5.773,99.128
0.56,110.41,5.773,99.128
0.56,110.41,5.773,99.128
0.56,110.41,5.773,99.127
0.57,110.41,5.773,99.127
0.57,110.42,5.773,99.127
0.57,110.42,5.773,99.127
[...]
3.96,272.48,5.872,100.821,-1.05730e-3
3.98,273.68,5.872,100.820,-1.07329e-3
4.00,274.88,5.872,100.818,-1.57004e-3
4.02,276.08,5.872,100.816,-1.76344e-3
4.04,277.28,5.871,100.814,-1.37580e-4
4.06,278.48,5.871,100.813,-3.67197e-4
4.08,279.68,5.871,100.812,-2.09583e-3
4.10,280.87,5.871,100.811,-1.39095e-3
4.12,282.07,5.871,100.809,-1.73271e-3
4.14,283.27,5.871,100.806,1.74539e-3
4.16,284.47,5.871,100.804,-2.65722e-3
4.18,285.68,5.871,100.803,8.60180e-4
4.20,286.88,5.871,100.803,-1.70592e-3
4.22,288.08,5.871,100.800,-1.98197e-4
4.24,289.28,5.871,100.798,-3.58842e-4
4.26,290.48,5.870,100.797,-4.20404e-4
4.28,291.68,5.870,100.797,-2.29441e-3
4.30,292.87,5.870,100.795,-3.94578e-3
4.32,294.07,5.870,100.793,-1.48242e-3
4.34,295.27,5.870,100.792,-3.35853e-4
4.36,296.47,5.870,100.789,1.32644e-3
4.38,297.67,5.870,100.788,-2.74223e-4
4.40,298.87,5.870,100.786,-1.64519e-3
4.42,300.08,5.870,100.787,-1.89753e-3
4.44,301.28,5.870,100.784,-1.46457e-3
4.46,302.48,5.870,100.782,-6.26223e-4
4.48,303.67,5.870,100.781,-1.60507e-4
4.50,304.87,5.869,100.778,-9.48012e-4
4.52,306.07,5.869,100.778,-1.49805e-3
4.54,307.27,5.869,100.778,-1.65705e-3
4.56,308.47,5.869,100.775,-1.70097e-3
4.58,309.67,5.869,100.772,-9.44855e-4
4.60,310.87,5.869,100.771,-9.13798e-5
4.62,312.07,5.869,100.768,-1.03576e-3
4.64,313.27,5.869,100.767,-2.43866e-3
4.66,314.48,5.869,100.765,-2.14362e-3
4.68,315.67,5.868,100.763,-1.32116e-3
4.70,316.87,5.868,100.761,2.44533e-4
4.72,318.07,5.868,100.761,2.29358e-4
4.74,319.27,5.868,100.759,-2.94992e-3
4.76,320.47,5.868,100.759,-2.99290e-3
4.78,321.67,5.868,100.755,-9.68501e-4
4.80,322.87,5.868,100.753,-2.65145e-3
4.82,324.07,5.868,100.750,-2.22435e-3
4.84,325.27,5.868,100.747,-7.84927e-4
4.86,326.47,5.867,100.746,-2.51698e-3
4.88,327.67,5.867,100.742,-5.59631e-3
4.90,328.87,5.867,100.738,-4.07303e-3
4.92,330.07,5.867,100.734,-4.30390e-3
4.94,331.27,5.867,100.730,-3.36258e-3
4.96,332.46,5.866,100.727,-3.54329e-3
4.98,333.66,5.866,100.722,-2.34971e-3
5.00,334.86,5.866,100.718,-3.43005e-3
5.02,336.07,5.866,100.714,-2.78092e-3
5.04,337.27,5.865,100.711,-3.99304e-3
5.06,338.47,5.865,100.707,-2.21153e-3
5.08,339.67,5.865,100.703,-4.10722e-3
5.10,340.87,5.865,100.699,-2.23132e-3
5.12,342.06,5.864,100.694,-2.40807e-3
5.14,343.26,5.864,100.691,-3.80676e-3
5.16,344.46,5.864,100.687,-5.80597e-3
5.18,345.66,5.864,100.682,-5.24398e-3
5.20,346.86,5.863,100.677,-4.01124e-3
5.22,348.06,5.863,100.671,-6.19665e-3
5.24,349.26,5.863,100.665,-4.13848e-3
5.26,350.46,5.862,100.659,-2.98171e-3
5.28,351.66,5.862,100.656,-6.25060e-3
5.30,352.86,5.862,100.651,-5.36236e-3
5.32,354.06,5.862,100.644,-4.80692e-3
5.34,355.26,5.861,100.635,-7.83448e-3
5.36,356.46,5.861,100.627,-5.65373e-3
5.38,357.65,5.860,100.618,-0.0151537
5.40,358.85,5.859,100.607,-8.04703e-3
5.42,360.05,5.859,100.597,-8.05078e-3
5.44,361.26,5.858,100.586,-0.0119901
5.46,362.46,5.857,100.574,-9.27961e-3
5.48,363.66,5.856,100.557,-0.0124981
5.50,364.86,5.856,100.542,-0.0133094
5.52,366.05,5.855,100.525,-0.0155539
5.54,367.25,5.854,100.506,-0.0177350
5.56,368.45,5.852,100.481,-0.0160504
5.58,369.65,5.850,100.452,-0.0190428
5.60,370.85,5.848,100.418,-0.0286433
5.62,372.05,5.846,100.385,-0.0522618
5.64,373.25,5.844,100.344,-0.0299206
5.66,374.45,5.841,100.284,-0.0478300
5.68,375.65,5.839,100.249,-0.0630435
5.70,376.85,5.834,100.179,-0.0310676
5.72,378.05,5.830,100.110,-0.0416438
5.74,379.25,5.826,100.040,-0.0610508
5.76,380.45,5.822,99.974,-0.0547861
5.78,381.65,5.818,99.888,-0.0566424
5.80,382.84,5.812,99.789,-0.0979090
5.82,384.04,5.807,99.699,-0.0551232
5.84,385.25,5.800,99.579,-0.112520
5.86,386.45,5.794,99.480,-0.100671
5.87,387.15,5.791,99.437,-0.0647894