Folder: CH302/instrument_data/TGA (part 2)

File: Co(phen)2(SCN)2 electromagnet RT-325-100 20C11142022.csv
Filename,Co(phen)2(SCN)2 electromagnet RT-325-100 20C11142022
Instrument name,5500-0566 (192.168.10.4)
Operator,Adam K
rundate,11/14/2022
Sample name,Co(phen)2(SCN)2 electromagnet RT-325-100 20C
proceduresegments,Equilibrate 120.00 °C; Isothermal 1.0 min; Electromagnet On 60.0 %; Equilibrate 120.00 °C; Ramp 20.00 °C/min to 325.00 °C; Ramp 20.00 °C/min to 100.00 °C; Equilibrate 100.00 °C
[File Parameters]
Run date,11/14/2022 3:49:10 PM
Trios version,5.3.0.48151
Original File Name,C:\ProgramData\TA Instruments\TRIOS\Data\CH302_B3_22_AK\Co(phen)2(SCN)2 electromagnet RT-325-100 20C11142022.tri
Current File Name,C:/ProgramData/TA Instruments/TRIOS/Data/CH302_B3_22_AK/Co(phen)2(SCN)2 electromagnet RT-325-100 20C11142022.tri
User at run start,CH-CBWNNF3-0721\ChemLocal
[Procedure]
Procedure Name,
Sample Name,Co(phen)2(SCN)2 electromagnet RT-325-100 20C
Pan Number,3
Sample Mass,12.630 mg
Pan Type,Aluminum
Comments,
Project Name,Spin Crossover
Operator,Adam K
Test,Custom
Skip Weight Stabilization,False
Sample mass pre-weigh,Not Available
Stop on Gas Flow Error,No
[Signal List]
Signal #1,Time (min)
Signal #2,Temperature (°C)
Signal #3,Weight (mg)
Signal #4,Temperature Difference (°C)
Signal #5,Sample Purge (mL/min)
Signal #6,Balance Purge (mL/min)
Signal #7,Set Point Temperature (°C)
Signal #8,Power Delivered (W)
Signal #9,Ramp Rate (°C/min)
[Configuration]
Company Name,localcc
Instrument Name,5500-0566
Instrument Type,TGA5500
Serial Number,5500-0566
IP,192.168.10.4
Location of Instrument,Olin Hall Rm 364
DisplayType,TianmaV2
Sample Interval ,0.1 s/pt
Gas 1,Nitrogen
Gas 2,Air
Selected Gas Channel,1
MTGA HiRes Licensed,Yes
[Versions]
Common IDD Version,1
Cortex Version,VER 2.1.2.60
Driver,5.0.0.6
GDM Version,1.2.1.2
TouchscreenVersion,1.0.3.1795
PCU Version,1.2.0.15
Transducer Version,1.1.0.32
[Experiment Logs]
Experiment Log Entry # 1,Equilibrate Segment 120 (C) Started
Experiment Log Entry # 3,Isothermal Segment 1 min started
Experiment Log Entry # 5,"Curie Magnet Segment enable 1, 60 %"
Experiment Log Entry # 7,Equilibrate Segment 120 (C) Started
Experiment Log Entry # 9,Ramp Segment 20 C/min to 325 C Started
Experiment Log Entry # 11,Ramp Segment 20 C/min to 100 C Started
Experiment Log Entry # 13,Ending Experiment because user stopped
Experiment Log Entry # 15,Ending Experiment
[Method Log]
Method Log Entry # 1,Equilibrate 120 °C
Method Log Entry # 2,Isothermal 1 minutes
Method Log Entry # 3,Electromagnet On 60 %
Method Log Entry # 4,Equilibrate 120 °C
Method Log Entry # 5,(Ramp 6177) Ramp 20 °C/minute to 325 °C
Method Log Entry # 6,(Ramp 6178) Ramp 20 °C/minute to 100 °C
[Weight Calibration]
Date Applied,7/20/2022 10:21:44 AM
Empty Pan Number,23
Empty Pan Weight,341.358 mg
Low Reference Weight Pan Number,24
Low Reference Weight,442.546 mg
High Reference Weight Pan Number,25
High Reference Weight,"1,243.774 mg"
Low Gain Meter Reading,9.9772E-006 mg/count
High Gain Meter Reading,7.9459E-005 mg/count
Low Meter Offset,31.8759 mg
High Meter Offset,613.7978 mg
[Curie Calibration]
Date Applied,8/11/2021 12:40:46 PM
Description,From 256.990 °C to 456.990 °C at 20.000°C/min
Gas Type,Nitrogen
Pan Type,Platinum (100 uL)
Source Files 1,C:\ProgramData\TA Instruments\TRIOS\Data\Nickel Calibration.tri
Source Files 2,C:\ProgramData\TA Instruments\TRIOS\Data\Alumel Calibration.tri
Measured 1,158.9083
Known 1,154.16
Measured 2,358.1255
Known 2,356.99
[step]
Isothermal 1.0 min
Time,Temperature,Weight,Weight
min,°C,mg,%
0.00,120.13,12.530,99.208
0.00,120.13,12.530,99.208
0.01,120.13,12.530,99.208
0.01,120.13,12.530,99.208
0.01,120.14,12.530,99.208
0.02,120.14,12.530,99.208
0.02,120.14,12.530,99.208
0.02,120.14,12.530,99.208
0.03,120.15,12.530,99.208
0.03,120.15,12.530,99.208
0.03,120.15,12.530,99.208
0.04,120.15,12.530,99.207
0.04,120.16,12.530,99.207
0.04,120.16,12.530,99.207
0.05,120.16,12.530,99.207
0.05,120.16,12.530,99.207
0.05,120.17,12.530,99.207
0.06,120.17,12.530,99.207
0.06,120.17,12.530,99.206
0.06,120.17,12.530,99.206
0.07,120.17,12.530,99.206
0.07,120.18,12.530,99.206
0.07,120.18,12.530,99.206
0.08,120.18,12.530,99.206
0.08,120.18,12.530,99.206
0.08,120.19,12.530,99.206
0.09,120.19,12.530,99.205
0.09,120.19,12.530,99.205
0.09,120.19,12.530,99.205
0.10,120.19,12.530,99.205
0.10,120.20,12.530,99.205
0.10,120.20,12.530,99.204
0.11,120.20,12.530,99.204
0.11,120.20,12.530,99.204
0.11,120.20,12.530,99.204
0.12,120.21,12.530,99.204
0.12,120.21,12.530,99.204
0.12,120.21,12.530,99.204
0.13,120.21,12.530,99.204
0.13,120.21,12.530,99.204
0.13,120.22,12.530,99.204
0.14,120.22,12.530,99.204
0.14,120.22,12.530,99.204
0.14,120.22,12.530,99.204
0.15,120.22,12.530,99.204
0.15,120.22,12.530,99.204
0.15,120.23,12.530,99.203
0.16,120.23,12.530,99.203
0.16,120.23,12.530,99.203
0.16,120.23,12.530,99.203
0.17,120.23,12.530,99.203
0.17,120.24,12.530,99.203
0.17,120.24,12.530,99.203
0.18,120.24,12.530,99.203
0.18,120.24,12.530,99.203
0.18,120.24,12.530,99.203
0.19,120.24,12.530,99.203
0.19,120.25,12.530,99.203
0.19,120.25,12.530,99.203
0.20,120.25,12.530,99.202
0.20,120.25,12.530,99.202
0.20,120.25,12.530,99.202
0.21,120.25,12.529,99.202
0.21,120.26,12.529,99.202
0.21,120.26,12.530,99.202
0.22,120.26,12.529,99.202
0.22,120.26,12.529,99.202
0.22,120.26,12.529,99.202
0.23,120.26,12.529,99.202
0.23,120.26,12.529,99.202
0.23,120.27,12.529,99.202
0.24,120.27,12.529,99.202
0.24,120.27,12.529,99.202
0.24,120.27,12.529,99.202
0.25,120.27,12.529,99.202
0.25,120.27,12.529,99.201
0.25,120.28,12.529,99.201
0.26,120.28,12.529,99.201
0.26,120.28,12.529,99.201
0.26,120.28,12.529,99.201
0.27,120.28,12.529,99.201
0.27,120.28,12.529,99.201
0.27,120.28,12.529,99.200
0.28,120.28,12.529,99.200
0.28,120.29,12.529,99.200
0.28,120.29,12.529,99.200
0.29,120.29,12.529,99.200
0.29,120.29,12.529,99.200
0.29,120.29,12.529,99.200
0.30,120.29,12.529,99.200
0.30,120.29,12.529,99.200
0.30,120.30,12.529,99.200
0.31,120.30,12.529,99.200
0.31,120.30,12.529,99.200
0.31,120.30,12.529,99.200
0.32,120.30,12.529,99.200
0.32,120.30,12.529,99.200
0.32,120.30,12.529,99.200
0.33,120.30,12.529,99.199
0.33,120.31,12.529,99.199
0.33,120.31,12.529,99.199
0.34,120.31,12.529,99.199
0.34,120.31,12.529,99.199
0.34,120.31,12.529,99.199
0.35,120.31,12.529,99.199
0.35,120.31,12.529,99.199
0.35,120.31,12.529,99.199
0.36,120.31,12.529,99.199
0.36,120.32,12.529,99.199
0.36,120.32,12.529,99.199
0.37,120.32,12.529,99.199
0.37,120.32,12.529,99.199
0.37,120.32,12.529,99.199
0.38,120.32,12.529,99.199
0.38,120.32,12.529,99.199
0.38,120.32,12.529,99.199
0.39,120.32,12.529,99.199
0.39,120.33,12.529,99.199
0.39,120.33,12.529,99.199
0.40,120.33,12.529,99.199
0.40,120.33,12.529,99.199
0.40,120.33,12.529,99.199
0.41,120.33,12.529,99.199
0.41,120.33,12.529,99.199
0.41,120.33,12.529,99.199
0.42,120.33,12.529,99.199
0.42,120.33,12.529,99.199
0.42,120.34,12.529,99.198
0.43,120.34,12.529,99.199
0.43,120.34,12.529,99.198
0.43,120.34,12.529,99.198
0.44,120.34,12.529,99.198
0.44,120.34,12.529,99.198
0.44,120.34,12.529,99.198
0.45,120.34,12.529,99.198
0.45,120.34,12.529,99.198
0.45,120.34,12.529,99.198
0.46,120.34,12.529,99.198
0.46,120.34,12.529,99.198
0.46,120.34,12.529,99.198
0.47,120.35,12.529,99.198
0.47,120.35,12.529,99.198
0.47,120.35,12.529,99.198
0.48,120.35,12.529,99.198
0.48,120.35,12.529,99.198
0.48,120.35,12.529,99.198
0.49,120.35,12.529,99.198
0.49,120.35,12.529,99.198
0.49,120.35,12.529,99.198
[...]
15.31,252.20,12.670,100.317,8.25076e-4
15.33,251.78,12.670,100.318,1.50943e-3
15.35,251.36,12.670,100.317,1.48655e-3
15.38,250.94,12.670,100.318,-3.65790e-3
15.40,250.52,12.670,100.317,-4.95592e-4
15.42,250.10,12.670,100.318,2.07703e-3
15.44,249.68,12.670,100.317,9.43841e-5
15.46,249.26,12.670,100.317,2.35960e-4
15.48,248.84,12.670,100.318,-1.65161e-4
15.50,248.42,12.670,100.317,-1.65081e-3
15.53,247.99,12.670,100.317,-2.89991e-3
15.55,247.57,12.670,100.318,4.71809e-5
15.57,247.15,12.670,100.318,1.72008e-3
15.59,246.73,12.670,100.318,9.18603e-4
15.61,246.31,12.670,100.318,-9.65757e-4
15.63,245.89,12.670,100.318,1.64861e-3
15.66,245.47,12.670,100.318,-5.88585e-4
15.68,245.05,12.670,100.318,-1.17645e-4
15.70,244.63,12.670,100.318,-1.43423e-3
15.72,244.20,12.670,100.318,-1.01081e-3
15.74,243.78,12.670,100.318,-2.81950e-4
15.77,243.36,12.670,100.318,-1.50376e-3
15.79,242.94,12.670,100.318,-1.87897e-4
15.81,242.52,12.670,100.318,-2.35271e-5
15.83,242.09,12.670,100.318,2.30155e-3
15.85,241.67,12.670,100.318,1.73739e-3
15.87,241.25,12.670,100.318,1.50213e-3
15.90,240.83,12.671,100.319,-2.06521e-3
15.92,240.40,12.671,100.319,1.03268e-3
15.94,239.98,12.671,100.319,-2.81582e-3
15.96,239.56,12.671,100.320,-1.64270e-3
15.98,239.13,12.671,100.319,-3.98982e-4
16.00,238.71,12.671,100.320,-8.92034e-4
16.03,238.29,12.671,100.320,-3.52227e-4
16.05,237.87,12.671,100.320,-3.99061e-4
16.07,237.44,12.671,100.320,6.33803e-4
16.09,237.02,12.671,100.320,-1.64310e-4
16.11,236.60,12.671,100.320,1.17346e-3
16.13,236.18,12.671,100.320,-1.66628e-3
16.15,235.75,12.671,100.320,-2.34799e-4
16.18,235.33,12.671,100.320,-2.11367e-3
16.20,234.91,12.671,100.320,-1.38604e-3
16.22,234.49,12.671,100.321,2.98377e-3
16.24,234.07,12.671,100.321,-1.05758e-3
16.26,233.64,12.671,100.321,-1.26923e-3
16.28,233.22,12.671,100.322,-2.65663e-3
16.31,232.80,12.671,100.322,1.22295e-3
16.33,232.38,12.671,100.322,-7.76471e-4
16.35,231.96,12.671,100.322,4.47183e-4
16.37,231.54,12.671,100.322,8.94118e-4
16.39,231.11,12.671,100.322,4.94308e-4
16.42,230.69,12.671,100.322,9.41365e-4
16.44,230.27,12.671,100.322,-2.09503e-3
16.46,229.85,12.671,100.323,-4.00308e-4
16.48,229.43,12.671,100.323,1.76571e-3
16.50,229.01,12.671,100.323,-1.12994e-3
16.52,228.59,12.671,100.323,3.76576e-3
16.55,228.16,12.671,100.323,3.52988e-4
16.57,227.74,12.671,100.324,-1.22325e-3
16.59,227.32,12.671,100.324,-2.37615e-3
16.61,226.90,12.671,100.324,-1.24683e-3
16.63,226.48,12.671,100.324,-2.18749e-3
16.65,226.06,12.671,100.325,1.88180e-4
16.68,225.63,12.671,100.325,-2.68142e-3
16.70,225.21,12.671,100.324,-3.92807e-3
16.72,224.79,12.671,100.325,-3.29288e-3
16.74,224.37,12.671,100.325,-1.41090e-3
16.76,223.95,12.671,100.325,9.17094e-4
16.78,223.53,12.671,100.326,-7.75869e-4
16.80,223.10,12.671,100.326,-2.09215e-3
16.83,222.68,12.672,100.327,-3.26732e-3
16.85,222.26,12.672,100.327,1.31606e-3
16.87,221.84,12.672,100.327,-6.11075e-4
16.89,221.42,12.672,100.328,1.64551e-4
16.91,220.99,12.672,100.328,-3.52600e-4
16.93,220.57,12.672,100.328,4.70011e-4
16.96,220.15,12.672,100.328,1.03396e-3
16.98,219.73,12.672,100.328,-1.03374e-3
17.00,219.31,12.672,100.328,-2.34903e-3
17.02,218.88,12.672,100.328,-1.05669e-3
17.04,218.46,12.672,100.328,1.64383e-4
17.07,218.04,12.672,100.329,-8.22075e-4
17.09,217.62,12.672,100.329,1.03363e-3
17.11,217.19,12.672,100.329,-1.76180e-3
17.13,216.77,12.672,100.329,4.69896e-4
17.15,216.35,12.672,100.329,-2.79605e-3
17.17,215.93,12.672,100.329,-5.63890e-4
17.19,215.51,12.672,100.329,5.16758e-4
17.22,215.08,12.672,100.330,1.15066e-3
17.24,214.66,12.672,100.330,-9.15581e-4
17.26,214.24,12.672,100.330,-2.88661e-3
17.27,214.11,12.672,100.330,2.58152e-3

File: Co(phen)2(SCN)2 electromagnet RT-325-10011142022(1).csv
Filename,Co(phen)2(SCN)2 electromagnet RT-325-10011142022(1)
Instrument name,5500-0566 (192.168.10.4)
Operator,Adam K
rundate,11/14/2022
Sample name,Co(phen)2(SCN)2 electromagnet RT-325-100
proceduresegments,Equilibrate 120.00 °C; Isothermal 1.0 min; Electromagnet On 60.0 %; Equilibrate 120.00 °C; Ramp 5.00 °C/min to 325.00 °C; Ramp 5.00 °C/min to 100.00 °C; Equilibrate 100.00 °C
[File Parameters]
Run date,11/14/2022 2:53:18 PM
Trios version,5.3.0.48151
Original File Name,C:\ProgramData\TA Instruments\TRIOS\Data\CH302_B3_22_AK\Co(phen)2(SCN)2 electromagnet RT-325-10011142022(1).tri
Current File Name,C:/ProgramData/TA Instruments/TRIOS/Data/CH302_B3_22_AK/Co(phen)2(SCN)2 electromagnet RT-325-10011142022(1).tri
User at run start,CH-CBWNNF3-0721\ChemLocal
[Procedure]
Procedure Name,
Sample Name,Co(phen)2(SCN)2 electromagnet RT-325-100
Pan Number,2
Sample Mass,11.478 mg
Pan Type,Aluminum
Comments,
Project Name,Spin Crossover
Operator,Adam K
Test,Custom
Skip Weight Stabilization,False
Sample mass pre-weigh,Not Available
Stop on Gas Flow Error,No
[Signal List]
Signal #1,Time (min)
Signal #2,Temperature (°C)
Signal #3,Weight (mg)
Signal #4,Temperature Difference (°C)
Signal #5,Sample Purge (mL/min)
Signal #6,Balance Purge (mL/min)
Signal #7,Set Point Temperature (°C)
Signal #8,Power Delivered (W)
Signal #9,Ramp Rate (°C/min)
[Configuration]
Company Name,localcc
Instrument Name,5500-0566
Instrument Type,TGA5500
Serial Number,5500-0566
IP,192.168.10.4
Location of Instrument,Olin Hall Rm 364
DisplayType,TianmaV2
Sample Interval ,0.1 s/pt
Gas 1,Nitrogen
Gas 2,Air
Selected Gas Channel,1
MTGA HiRes Licensed,Yes
[Versions]
Common IDD Version,1
Cortex Version,VER 2.1.2.60
Driver,5.0.0.6
GDM Version,1.2.1.2
TouchscreenVersion,1.0.3.1795
PCU Version,1.2.0.15
Transducer Version,1.1.0.32
[Experiment Logs]
Experiment Log Entry # 1,Equilibrate Segment 120 (C) Started
Experiment Log Entry # 3,Isothermal Segment 1 min started
Experiment Log Entry # 5,"Curie Magnet Segment enable 1, 60 %"
Experiment Log Entry # 7,Equilibrate Segment 120 (C) Started
Experiment Log Entry # 9,Ramp Segment 5 C/min to 325 C Started
Experiment Log Entry # 11,Ending Experiment because user stopped
Experiment Log Entry # 13,Ending Experiment
[Method Log]
Method Log Entry # 1,Equilibrate 120 °C
Method Log Entry # 2,Isothermal 1 minutes
Method Log Entry # 3,Electromagnet On 60 %
Method Log Entry # 4,Equilibrate 120 °C
Method Log Entry # 5,(Ramp 3071) Ramp 5 °C/minute to 325 °C
[Weight Calibration]
Date Applied,7/20/2022 10:21:44 AM
Empty Pan Number,23
Empty Pan Weight,341.358 mg
Low Reference Weight Pan Number,24
Low Reference Weight,442.546 mg
High Reference Weight Pan Number,25
High Reference Weight,"1,243.774 mg"
Low Gain Meter Reading,9.9772E-006 mg/count
High Gain Meter Reading,7.9459E-005 mg/count
Low Meter Offset,31.8759 mg
High Meter Offset,613.7978 mg
[Curie Calibration]
Date Applied,8/11/2021 12:40:46 PM
Description,From 256.990 °C to 456.990 °C at 20.000°C/min
Gas Type,Nitrogen
Pan Type,Platinum (100 uL)
Source Files 1,C:\ProgramData\TA Instruments\TRIOS\Data\Nickel Calibration.tri
Source Files 2,C:\ProgramData\TA Instruments\TRIOS\Data\Alumel Calibration.tri
Measured 1,158.9083
Known 1,154.16
Measured 2,358.1255
Known 2,356.99
[step]
Isothermal 1.0 min
Time,Temperature,Weight,Weight
min,°C,mg,%
0.00,120.12,11.417,99.472
0.00,120.12,11.417,99.472
0.01,120.13,11.417,99.471
0.01,120.13,11.417,99.471
0.01,120.13,11.417,99.471
0.02,120.13,11.417,99.471
0.02,120.14,11.417,99.471
0.02,120.14,11.417,99.471
0.03,120.14,11.417,99.471
0.03,120.14,11.417,99.471
0.03,120.15,11.417,99.471
0.04,120.15,11.417,99.471
0.04,120.15,11.417,99.471
0.04,120.15,11.417,99.471
0.05,120.15,11.417,99.471
0.05,120.16,11.417,99.471
0.05,120.16,11.417,99.471
0.06,120.16,11.417,99.470
0.06,120.16,11.417,99.470
0.06,120.17,11.417,99.470
0.07,120.17,11.417,99.471
0.07,120.17,11.417,99.470
0.07,120.17,11.417,99.470
0.08,120.17,11.417,99.470
0.08,120.18,11.417,99.470
0.08,120.18,11.417,99.470
0.09,120.18,11.417,99.470
0.09,120.18,11.417,99.470
0.09,120.19,11.417,99.470
0.10,120.19,11.417,99.470
0.10,120.19,11.417,99.470
0.10,120.19,11.417,99.470
0.11,120.19,11.417,99.470
0.11,120.20,11.417,99.470
0.11,120.20,11.417,99.470
0.12,120.20,11.417,99.470
0.12,120.20,11.417,99.469
0.12,120.20,11.417,99.469
0.13,120.20,11.417,99.469
0.13,120.21,11.417,99.469
0.13,120.21,11.417,99.469
0.14,120.21,11.417,99.469
0.14,120.21,11.417,99.469
0.14,120.21,11.417,99.469
0.15,120.22,11.417,99.469
0.15,120.22,11.417,99.469
0.15,120.22,11.417,99.469
0.16,120.22,11.417,99.469
0.16,120.22,11.417,99.469
0.16,120.22,11.417,99.469
0.17,120.23,11.417,99.469
0.17,120.23,11.417,99.469
0.17,120.23,11.417,99.469
0.18,120.23,11.417,99.469
0.18,120.23,11.417,99.469
0.18,120.23,11.417,99.469
0.19,120.24,11.417,99.469
0.19,120.24,11.417,99.469
0.19,120.24,11.417,99.469
0.20,120.24,11.417,99.469
0.20,120.24,11.417,99.469
0.20,120.24,11.417,99.469
0.21,120.25,11.417,99.468
0.21,120.25,11.417,99.468
0.21,120.25,11.417,99.468
0.22,120.25,11.417,99.468
0.22,120.25,11.417,99.468
0.22,120.25,11.417,99.468
0.23,120.26,11.417,99.468
0.23,120.26,11.417,99.468
0.23,120.26,11.417,99.468
0.24,120.26,11.417,99.468
0.24,120.26,11.417,99.468
0.24,120.26,11.417,99.468
0.25,120.26,11.417,99.468
0.25,120.27,11.417,99.468
0.25,120.27,11.417,99.468
0.26,120.27,11.417,99.468
0.26,120.27,11.417,99.468
0.26,120.27,11.417,99.468
0.27,120.27,11.417,99.468
0.27,120.27,11.417,99.468
0.27,120.27,11.417,99.468
0.28,120.28,11.417,99.468
0.28,120.28,11.417,99.468
0.28,120.28,11.417,99.468
0.29,120.28,11.417,99.468
0.29,120.28,11.417,99.468
0.29,120.28,11.416,99.468
0.30,120.28,11.416,99.468
0.30,120.29,11.416,99.468
0.30,120.29,11.416,99.468
0.31,120.29,11.416,99.468
0.31,120.29,11.416,99.468
0.31,120.29,11.416,99.468
0.32,120.29,11.416,99.467
0.32,120.29,11.416,99.467
0.32,120.29,11.416,99.468
0.33,120.29,11.416,99.467
0.33,120.30,11.416,99.467
0.33,120.30,11.416,99.467
0.34,120.30,11.416,99.467
0.34,120.30,11.416,99.467
0.34,120.30,11.416,99.467
0.35,120.30,11.416,99.467
0.35,120.30,11.416,99.467
0.35,120.30,11.416,99.467
0.36,120.31,11.416,99.467
0.36,120.31,11.416,99.467
0.36,120.31,11.416,99.467
0.37,120.31,11.416,99.467
0.37,120.31,11.416,99.467
0.37,120.31,11.416,99.467
0.38,120.31,11.416,99.467
0.38,120.31,11.416,99.467
0.38,120.31,11.416,99.467
0.39,120.31,11.416,99.467
0.39,120.32,11.416,99.467
0.39,120.32,11.416,99.467
0.40,120.32,11.416,99.467
0.40,120.32,11.416,99.467
0.40,120.32,11.416,99.467
0.41,120.32,11.416,99.467
0.41,120.32,11.416,99.466
0.41,120.32,11.416,99.466
0.42,120.32,11.416,99.466
0.42,120.32,11.416,99.466
0.42,120.32,11.416,99.466
0.43,120.33,11.416,99.466
0.43,120.33,11.416,99.466
0.43,120.33,11.416,99.466
0.44,120.33,11.416,99.466
0.44,120.33,11.416,99.466
0.44,120.33,11.416,99.466
0.45,120.33,11.416,99.466
0.45,120.33,11.416,99.466
0.45,120.33,11.416,99.466
0.46,120.33,11.416,99.466
0.46,120.33,11.416,99.466
0.46,120.33,11.416,99.467
0.47,120.34,11.416,99.466
0.47,120.34,11.416,99.466
0.47,120.34,11.416,99.466
0.48,120.34,11.416,99.466
0.48,120.34,11.416,99.466
0.48,120.34,11.416,99.466
0.49,120.34,11.416,99.466
0.49,120.34,11.416,99.466
0.49,120.34,11.416,99.466
0.50,120.34,11.416,99.466
0.50,120.34,11.416,99.466
0.50,120.34,11.416,99.466
0.51,120.34,11.416,99.466
0.51,120.35,11.416,99.466
[...]
14.97,185.93,11.463,99.870,3.02510e-3
15.05,186.33,11.463,99.870,4.76768e-3
15.13,186.73,11.463,99.869,5.74818e-3
15.21,187.13,11.463,99.870,-3.20061e-3
15.29,187.53,11.463,99.870,-3.03444e-3
15.37,187.93,11.463,99.870,1.83486e-4
15.45,188.33,11.463,99.871,5.87985e-3
15.53,188.72,11.463,99.870,9.95306e-3
15.61,189.12,11.463,99.871,2.75904e-4
15.69,189.52,11.463,99.871,-4.38476e-3
15.77,189.92,11.463,99.870,3.10399e-3
15.85,190.32,11.463,99.871,5.79826e-3
15.93,190.72,11.463,99.871,-4.96966e-3
16.01,191.12,11.463,99.871,-2.09737e-3
16.09,191.52,11.463,99.871,4.93388e-3
16.17,191.92,11.463,99.871,5.51197e-3
16.25,192.32,11.463,99.871,-4.05157e-3
16.33,192.72,11.463,99.871,1.09783e-3
16.41,193.12,11.463,99.871,-2.73989e-3
16.49,193.52,11.463,99.871,-0.0106422
16.57,193.92,11.463,99.871,5.21636e-3
16.65,194.32,11.463,99.871,1.83358e-3
16.73,194.72,11.463,99.871,1.74873e-3
16.81,195.11,11.463,99.871,0.0101600
16.89,195.51,11.463,99.871,-3.57143e-3
16.97,195.91,11.463,99.871,5.23775e-3
17.05,196.31,11.463,99.871,2.75874e-3
17.13,196.71,11.463,99.871,-3.57798e-3
17.21,197.11,11.463,99.869,-3.76568e-3
17.29,197.51,11.462,99.868,-6.14423e-3
17.37,197.91,11.462,99.867,6.49392e-3
17.45,198.31,11.462,99.866,-1.28205e-3
17.53,198.71,11.462,99.866,1.00911e-3
17.61,199.11,11.462,99.866,-7.24195e-3
17.69,199.51,11.462,99.866,7.42356e-3
17.77,199.91,11.462,99.866,-4.21034e-3
17.85,200.31,11.462,99.866,7.05551e-3
17.93,200.71,11.462,99.865,-0.0136179
18.01,201.10,11.462,99.866,1.10701e-3
18.09,201.50,11.462,99.867,0.0134315
18.17,201.90,11.463,99.870,0.0102377
18.25,202.30,11.463,99.871,-1.28205e-3
18.33,202.70,11.463,99.872,5.53506e-4
18.41,203.10,11.463,99.872,7.36648e-4
18.49,203.50,11.463,99.870,2.55009e-3
18.57,203.90,11.463,99.874,-6.36222e-4
18.65,204.30,11.463,99.874,-5.31605e-3
18.73,204.70,11.463,99.873,5.76725e-3
18.81,205.10,11.463,99.873,-1.83921e-4
18.89,205.50,11.463,99.873,8.25688e-4
18.97,205.90,11.463,99.873,-6.05505e-3
19.05,206.30,11.463,99.873,-5.77982e-3
19.13,206.69,11.463,99.874,2.11114e-3
19.21,207.09,11.463,99.874,5.49952e-4
19.29,207.49,11.463,99.874,-4.94895e-3
19.37,207.89,11.463,99.874,-6.90872e-3
19.45,208.29,11.463,99.874,2.37757e-3
19.53,208.69,11.463,99.874,-3.65514e-3
19.61,209.09,11.463,99.874,7.25593e-3
19.69,209.49,11.463,99.875,-7.35294e-4
19.77,209.89,11.463,99.875,-7.06109e-3
19.85,210.29,11.463,99.875,-4.29944e-3
19.93,210.69,11.463,99.874,3.67985e-4
20.01,211.09,11.463,99.875,-1.64835e-3
20.09,211.49,11.463,99.876,-9.66851e-3
20.17,211.88,11.463,99.876,-1.92627e-3
20.25,212.28,11.463,99.876,5.36096e-3
20.33,212.69,11.463,99.875,6.02140e-3
20.41,213.09,11.463,99.875,-2.75506e-3
20.49,213.49,11.463,99.876,-6.42504e-4
20.57,213.89,11.463,99.875,-7.31154e-3
20.65,214.29,11.463,99.876,7.43898e-3
20.73,214.68,11.463,99.876,-5.77292e-3
20.81,215.09,11.463,99.875,-5.08167e-3
20.89,215.49,11.463,99.875,6.69725e-3
20.97,215.89,11.463,99.876,1.10490e-3
21.05,216.28,11.463,99.876,-4.03135e-3
21.13,216.69,11.463,99.876,9.21533e-3
21.21,217.09,11.463,99.876,-5.04257e-3
21.29,217.49,11.463,99.875,-1.00676e-3
21.37,217.89,11.463,99.875,0.0195467
21.45,218.29,11.463,99.869,-0.0195863
21.53,218.69,11.462,99.860,-6.51723e-3
21.61,219.08,11.461,99.856,-0.0186753
21.69,219.48,11.461,99.852,-6.90435e-3
21.77,219.88,11.460,99.850,-9.33617e-3
21.85,220.28,11.460,99.847,-5.48847e-4
21.93,220.68,11.460,99.847,-1.09860e-3
22.01,221.08,11.460,99.846,2.11397e-3
22.09,221.48,11.460,99.846,-4.38961e-3
22.17,221.88,11.460,99.845,7.49543e-3
22.25,222.28,11.460,99.844,-4.31193e-3
22.33,222.68,11.460,99.844,2.77606e-4
22.41,223.08,11.459,99.842,-0.0200199
22.49,223.47,11.459,99.840,-1.38122e-3