Folder: CH302/instrument_data/TGA (part 3)

File: Co(phen)2(SCN)2 electromagnet RT-325-10011142022.csv
Filename,Co(phen)2(SCN)2 electromagnet RT-325-10011142022
Instrument name,5500-0566 (192.168.10.4)
Operator,Adam K
rundate,11/14/2022
Sample name,Co(phen)2(SCN)2 electromagnet RT-325-100
proceduresegments,Equilibrate 120.00 °C; Isothermal 1.0 min; Electromagnet On 100.0 %; Equilibrate 120.00 °C; Ramp 5.00 °C/min to 325.00 °C; Ramp 5.00 °C/min to 100.00 °C; Equilibrate 100.00 °C
[File Parameters]
Run date,11/14/2022 2:11:32 PM
Trios version,5.3.0.48151
Original File Name,C:\ProgramData\TA Instruments\TRIOS\Data\CH302_B3_22_AK\Co(phen)2(SCN)2 electromagnet RT-325-10011142022.tri
Current File Name,C:/ProgramData/TA Instruments/TRIOS/Data/CH302_B3_22_AK/Co(phen)2(SCN)2 electromagnet RT-325-10011142022.tri
User at run start,CH-CBWNNF3-0721\ChemLocal
[Procedure]
Procedure Name,
Sample Name,Co(phen)2(SCN)2 electromagnet RT-325-100
Pan Number,1
Sample Mass,12.230 mg
Pan Type,Aluminum
Comments,
Project Name,Spin Crossover
Operator,Adam K
Test,Custom
Skip Weight Stabilization,False
Sample mass pre-weigh,Not Available
Stop on Gas Flow Error,No
[Signal List]
Signal #1,Time (min)
Signal #2,Temperature (°C)
Signal #3,Weight (mg)
Signal #4,Temperature Difference (°C)
Signal #5,Sample Purge (mL/min)
Signal #6,Balance Purge (mL/min)
Signal #7,Set Point Temperature (°C)
Signal #8,Power Delivered (W)
Signal #9,Ramp Rate (°C/min)
[Configuration]
Company Name,localcc
Instrument Name,5500-0566
Instrument Type,TGA5500
Serial Number,5500-0566
IP,192.168.10.4
Location of Instrument,Olin Hall Rm 364
DisplayType,TianmaV2
Sample Interval ,0.1 s/pt
Gas 1,Nitrogen
Gas 2,Air
Selected Gas Channel,1
MTGA HiRes Licensed,Yes
[Versions]
Common IDD Version,1
Cortex Version,VER 2.1.2.60
Driver,5.0.0.6
GDM Version,1.2.1.2
TouchscreenVersion,1.0.3.1795
PCU Version,1.2.0.15
Transducer Version,1.1.0.32
[Experiment Logs]
Experiment Log Entry # 1,Equilibrate Segment 120 (C) Started
Experiment Log Entry # 3,Isothermal Segment 1 min started
Experiment Log Entry # 5,"Curie Magnet Segment enable 1, 100 %"
Experiment Log Entry # 7,Equilibrate Segment 120 (C) Started
Experiment Log Entry # 9,Ramp Segment 5 C/min to 325 C Started
Experiment Log Entry # 11,Ending Experiment because of critical or major error
Experiment Log Entry # 13,Curie Coil error
[Method Log]
Method Log Entry # 1,Equilibrate 120 °C
Method Log Entry # 2,Isothermal 1 minutes
Method Log Entry # 3,Electromagnet On 100 %
Method Log Entry # 4,Equilibrate 120 °C
Method Log Entry # 5,(Ramp 1884) Ramp 5 °C/minute to 325 °C
[Weight Calibration]
Date Applied,7/20/2022 10:21:44 AM
Empty Pan Number,23
Empty Pan Weight,341.358 mg
Low Reference Weight Pan Number,24
Low Reference Weight,442.546 mg
High Reference Weight Pan Number,25
High Reference Weight,"1,243.774 mg"
Low Gain Meter Reading,9.9772E-006 mg/count
High Gain Meter Reading,7.9459E-005 mg/count
Low Meter Offset,31.8759 mg
High Meter Offset,613.7978 mg
[Curie Calibration]
Date Applied,8/11/2021 12:40:46 PM
Description,From 256.990 °C to 456.990 °C at 20.000°C/min
Gas Type,Nitrogen
Pan Type,Platinum (100 uL)
Source Files 1,C:\ProgramData\TA Instruments\TRIOS\Data\Nickel Calibration.tri
Source Files 2,C:\ProgramData\TA Instruments\TRIOS\Data\Alumel Calibration.tri
Measured 1,158.9083
Known 1,154.16
Measured 2,358.1255
Known 2,356.99
[step]
Isothermal 1.0 min
Time,Temperature,Weight,Weight
min,°C,mg,%
0.00,120.11,12.182,99.609
0.00,120.11,12.182,99.609
0.01,120.12,12.182,99.609
0.01,120.12,12.182,99.610
0.01,120.12,12.182,99.609
0.02,120.12,12.182,99.609
0.02,120.13,12.182,99.609
0.02,120.13,12.182,99.609
0.03,120.13,12.182,99.609
0.03,120.13,12.182,99.610
0.03,120.14,12.182,99.609
0.04,120.14,12.182,99.610
0.04,120.14,12.182,99.610
0.04,120.14,12.182,99.610
0.05,120.14,12.182,99.610
0.05,120.15,12.182,99.610
0.05,120.15,12.182,99.610
0.06,120.15,12.182,99.610
0.06,120.15,12.182,99.609
0.06,120.16,12.182,99.609
0.07,120.16,12.182,99.609
0.07,120.16,12.182,99.609
0.07,120.16,12.182,99.609
0.08,120.17,12.182,99.609
0.08,120.17,12.182,99.609
0.08,120.17,12.182,99.609
0.09,120.17,12.182,99.609
0.09,120.17,12.182,99.609
0.09,120.18,12.182,99.608
0.10,120.18,12.182,99.608
0.10,120.18,12.182,99.608
0.10,120.18,12.182,99.608
0.11,120.18,12.182,99.608
0.11,120.19,12.182,99.608
0.11,120.19,12.182,99.608
0.12,120.19,12.182,99.608
0.12,120.19,12.182,99.608
0.12,120.19,12.182,99.608
0.13,120.20,12.182,99.608
0.13,120.20,12.182,99.607
0.13,120.20,12.182,99.607
0.14,120.20,12.182,99.607
0.14,120.20,12.182,99.607
0.14,120.21,12.182,99.607
0.15,120.21,12.182,99.607
0.15,120.21,12.182,99.607
0.15,120.21,12.182,99.607
0.16,120.21,12.182,99.607
0.16,120.22,12.182,99.607
0.16,120.22,12.182,99.607
0.17,120.22,12.182,99.607
0.17,120.22,12.182,99.607
0.17,120.22,12.182,99.606
0.18,120.22,12.182,99.606
0.18,120.23,12.182,99.607
0.18,120.23,12.182,99.607
0.19,120.23,12.182,99.607
0.19,120.23,12.182,99.607
0.19,120.23,12.182,99.607
0.20,120.23,12.182,99.606
0.20,120.24,12.182,99.606
0.20,120.24,12.182,99.606
0.21,120.24,12.182,99.606
0.21,120.24,12.182,99.606
0.21,120.24,12.182,99.606
0.22,120.24,12.182,99.606
0.22,120.25,12.182,99.606
0.22,120.25,12.182,99.606
0.23,120.25,12.182,99.606
0.23,120.25,12.182,99.606
0.23,120.25,12.182,99.606
0.24,120.25,12.182,99.606
0.24,120.26,12.182,99.606
0.24,120.26,12.182,99.606
0.25,120.26,12.182,99.606
0.25,120.26,12.182,99.606
0.25,120.26,12.182,99.606
0.26,120.26,12.182,99.606
0.26,120.26,12.182,99.606
0.26,120.27,12.182,99.606
0.27,120.27,12.182,99.606
0.27,120.27,12.182,99.606
0.27,120.27,12.182,99.605
0.28,120.27,12.182,99.605
0.28,120.27,12.182,99.605
0.28,120.27,12.182,99.605
0.29,120.27,12.182,99.605
0.29,120.28,12.182,99.605
0.29,120.28,12.182,99.605
0.30,120.28,12.182,99.605
0.30,120.28,12.182,99.605
0.30,120.28,12.182,99.605
0.31,120.28,12.182,99.605
0.31,120.28,12.182,99.605
0.31,120.28,12.181,99.605
0.32,120.29,12.181,99.605
0.32,120.29,12.181,99.604
0.32,120.29,12.181,99.604
0.33,120.29,12.181,99.604
0.33,120.29,12.181,99.604
0.33,120.29,12.181,99.604
0.34,120.29,12.181,99.604
0.34,120.29,12.181,99.604
0.34,120.29,12.181,99.604
0.35,120.30,12.181,99.604
0.35,120.30,12.181,99.604
0.35,120.30,12.181,99.604
0.36,120.30,12.181,99.604
0.36,120.30,12.181,99.604
0.36,120.30,12.181,99.604
0.37,120.30,12.181,99.604
0.37,120.30,12.181,99.604
0.37,120.30,12.181,99.604
0.38,120.30,12.181,99.604
0.38,120.31,12.181,99.604
0.38,120.31,12.181,99.604
0.39,120.31,12.181,99.604
0.39,120.31,12.181,99.604
0.39,120.31,12.181,99.604
0.40,120.31,12.181,99.604
0.40,120.31,12.181,99.604
0.40,120.31,12.181,99.604
0.41,120.31,12.181,99.604
0.41,120.31,12.181,99.604
0.41,120.31,12.181,99.604
0.42,120.32,12.181,99.604
0.42,120.32,12.181,99.604
0.42,120.32,12.181,99.604
0.43,120.32,12.181,99.604
0.43,120.32,12.181,99.604
0.43,120.32,12.181,99.604
0.44,120.32,12.181,99.604
0.44,120.32,12.181,99.604
0.44,120.32,12.181,99.604
0.45,120.32,12.181,99.604
0.45,120.32,12.181,99.604
0.45,120.33,12.181,99.603
0.46,120.33,12.181,99.603
0.46,120.33,12.181,99.603
0.46,120.33,12.181,99.603
0.47,120.33,12.181,99.603
0.47,120.33,12.181,99.603
0.47,120.33,12.181,99.603
0.48,120.33,12.181,99.603
0.48,120.33,12.181,99.603
0.48,120.33,12.181,99.603
0.49,120.33,12.181,99.603
0.49,120.33,12.181,99.603
0.49,120.33,12.181,99.603
0.50,120.34,12.181,99.603
0.50,120.34,12.181,99.603
0.50,120.34,12.181,99.603
0.51,120.34,12.181,99.603
0.51,120.34,12.181,99.604
[...]
3.64,129.39,12.509,102.285,-0.0530213
3.66,129.46,12.509,102.282,-0.0523723
3.68,129.54,12.509,102.279,-0.0466650
3.69,129.62,12.508,102.275,-0.0363337
3.71,129.69,12.508,102.272,-0.0565791
3.72,129.77,12.507,102.269,-0.0344483
3.74,129.84,12.507,102.266,-0.0551505
3.75,129.92,12.507,102.263,-0.0396929
3.76,129.99,12.506,102.259,-0.0354988
3.78,130.07,12.506,102.256,-0.0440557
3.79,130.14,12.505,102.252,-0.0497708
3.81,130.22,12.505,102.248,-0.0512659
3.83,130.29,12.504,102.245,-0.0527523
3.84,130.37,12.504,102.242,-0.0493299
3.86,130.44,12.504,102.238,-0.0533627
3.87,130.52,12.503,102.235,-0.0439801
3.89,130.59,12.503,102.231,-0.0379121
3.90,130.67,12.502,102.229,-0.0367082
3.91,130.74,12.502,102.226,-0.0290941
3.93,130.82,12.502,102.223,-0.0460288
3.94,130.89,12.501,102.219,-0.0308593
3.96,130.97,12.501,102.216,-0.0465032
3.98,131.04,12.501,102.213,-0.0298814
3.99,131.12,12.500,102.210,-0.0377149
4.01,131.19,12.500,102.208,-0.0360085
4.02,131.27,12.499,102.205,-0.0461386
4.04,131.34,12.499,102.202,-0.0371429
4.05,131.42,12.499,102.198,-0.0476308
4.06,131.49,12.498,102.196,-0.0382922
4.08,131.56,12.498,102.193,-0.0392104
4.09,131.64,12.498,102.190,-0.0441176
4.11,131.71,12.497,102.187,-0.0339635
4.13,131.79,12.497,102.184,-0.0397469
4.14,131.86,12.497,102.181,-0.0372477
4.16,131.94,12.496,102.179,-0.0337295
4.17,132.01,12.496,102.176,-0.0367555
4.19,132.09,12.496,102.173,-0.0326007
4.20,132.16,12.495,102.171,-0.0311983
4.21,132.24,12.495,102.169,-0.0308213
4.23,132.31,12.495,102.166,-0.0417954
4.24,132.39,12.494,102.163,-0.0440100
4.26,132.46,12.494,102.160,-0.0288688
4.28,132.54,12.494,102.158,-0.0381879
4.29,132.61,12.494,102.156,-0.0324383
4.30,132.69,12.493,102.154,-0.0266423
4.32,132.76,12.493,102.151,-0.0272049
4.34,132.84,12.493,102.149,-0.0336985
4.35,132.92,12.492,102.146,-0.0500641
4.36,132.99,12.492,102.143,-0.0299174
4.38,133.07,12.492,102.141,-0.0322051
4.40,133.14,12.491,102.138,-0.0377417
4.41,133.22,12.491,102.135,-0.0403305
4.43,133.29,12.491,102.133,-0.0358716
4.44,133.36,12.490,102.130,-0.0439450
4.45,133.44,12.490,102.128,-0.0320294
4.47,133.51,12.490,102.126,-0.0286080
4.49,133.59,12.490,102.123,-0.0329358
4.50,133.66,12.489,102.121,-0.0422546
4.51,133.74,12.489,102.119,-0.0292498
4.53,133.81,12.489,102.116,-0.0271370
4.55,133.89,12.488,102.114,-0.0420869
4.56,133.96,12.488,102.112,-0.0316102
4.58,134.04,12.488,102.110,-0.0295261
4.59,134.11,12.488,102.108,-0.0270642
4.60,134.19,12.487,102.105,-0.0293850
4.62,134.26,12.487,102.103,-0.0390625
4.64,134.34,12.487,102.100,-0.0245632
4.65,134.41,12.486,102.099,-0.0217435
4.66,134.49,12.486,102.097,-0.0419809
4.68,134.56,12.486,102.094,-0.0333766
4.70,134.64,12.486,102.092,-0.0301211
4.71,134.71,12.485,102.090,-0.0321422
4.73,134.79,12.485,102.087,-0.0321189
4.74,134.86,12.485,102.085,-0.0262771
4.75,134.93,12.485,102.083,-0.0231193
4.77,135.01,12.484,102.081,-0.0413544
4.79,135.08,12.484,102.079,-0.0194990
4.80,135.16,12.484,102.077,-0.0341080
4.81,135.23,12.484,102.074,-0.0303309
4.83,135.31,12.483,102.073,-0.0162619
4.85,135.39,12.483,102.071,-0.0292346
4.86,135.46,12.483,102.068,-0.0332237
4.88,135.54,12.483,102.066,-0.0133409
4.89,135.61,12.482,102.064,-0.0281536
4.90,135.69,12.482,102.062,-0.0196631
4.92,135.76,12.482,102.060,-0.0289015
4.94,135.84,12.482,102.058,-0.0319536
4.95,135.91,12.481,102.056,-0.0180466
4.96,135.99,12.481,102.054,-0.0245649
4.98,136.06,12.481,102.052,-0.0190604
5.00,136.14,12.481,102.051,-0.0139320
5.01,136.21,12.480,102.049,-0.0381864
5.03,136.29,12.480,102.047,
5.04,136.36,12.480,102.045,
5.05,136.43,12.480,102.043,
5.07,136.51,12.479,102.041,
5.09,136.58,12.479,102.040,
5.09,136.62,12.479,102.039,

File: Co(phen)2(SCN)2 electromagnet RT-4001172022.csv
Filename,Co(phen)2(SCN)2 electromagnet RT-4001172022
Instrument name,5500-0566 (192.168.10.4)
Operator,Adam K
rundate,11/7/2022
Sample name,Co(phen)2(SCN)2 electromagnet RT-400
proceduresegments,Equilibrate 110.00 °C; Isothermal 1.0 min; Electromagnet On 50.0 %; Ramp 10.00 °C/min to 400.00 °C
[File Parameters]
Run date,11/7/2022 4:04:25 PM
Trios version,5.3.0.48151
Original File Name,C:\ProgramData\TA Instruments\TRIOS\Data\CH302_B3_22_AK\Co(phen)2(SCN)2 electromagnet RT-4001172022.tri
Current File Name,C:/ProgramData/TA Instruments/TRIOS/Data/CH302_B3_22_AK/Co(phen)2(SCN)2 electromagnet RT-4001172022.tri
User at run start,CH-CBWNNF3-0721\ChemLocal
[Procedure]
Procedure Name,
Sample Name,Co(phen)2(SCN)2 electromagnet RT-400
Pan Number,2
Sample Mass,5.359 mg
Pan Type,Aluminum
Comments,
Project Name,Spin Crossover
Operator,Adam K
Test,Custom
Skip Weight Stabilization,False
Sample mass pre-weigh,Not Available
Stop on Gas Flow Error,No
[Signal List]
Signal #1,Time (min)
Signal #2,Temperature (°C)
Signal #3,Weight (mg)
Signal #4,Temperature Difference (°C)
Signal #5,Sample Purge (mL/min)
Signal #6,Balance Purge (mL/min)
Signal #7,Set Point Temperature (°C)
Signal #8,Power Delivered (W)
Signal #9,Ramp Rate (°C/min)
[Configuration]
Company Name,localcc
Instrument Name,5500-0566
Instrument Type,TGA5500
Serial Number,5500-0566
IP,192.168.10.4
Location of Instrument,Olin Hall Rm 364
DisplayType,TianmaV2
Sample Interval ,0.1 s/pt
Gas 1,Nitrogen
Gas 2,Air
Selected Gas Channel,1
MTGA HiRes Licensed,Yes
[Versions]
Common IDD Version,1
Cortex Version,VER 2.1.2.60
Driver,5.0.0.6
GDM Version,1.2.1.2
TouchscreenVersion,1.0.3.1795
PCU Version,1.2.0.15
Transducer Version,1.1.0.32
[Experiment Logs]
Experiment Log Entry # 1,Equilibrate Segment 110 (C) Started
Experiment Log Entry # 3,Isothermal Segment 1 min started
Experiment Log Entry # 5,"Curie Magnet Segment enable 1, 50 %"
Experiment Log Entry # 7,Ramp Segment 10 C/min to 400 C Started
[Method Log]
Method Log Entry # 1,Equilibrate 110 °C
Method Log Entry # 2,Isothermal 1 minutes
Method Log Entry # 3,Electromagnet On 50 %
Method Log Entry # 4,(Ramp 5035) Ramp 10 °C/minute to 400 °C
[Weight Calibration]
Date Applied,7/20/2022 10:21:44 AM
Empty Pan Number,23
Empty Pan Weight,341.358 mg
Low Reference Weight Pan Number,24
Low Reference Weight,442.546 mg
High Reference Weight Pan Number,25
High Reference Weight,"1,243.774 mg"
Low Gain Meter Reading,9.9772E-006 mg/count
High Gain Meter Reading,7.9459E-005 mg/count
Low Meter Offset,31.8759 mg
High Meter Offset,613.7978 mg
[Curie Calibration]
Date Applied,8/11/2021 12:40:46 PM
Description,From 256.990 °C to 456.990 °C at 20.000°C/min
Gas Type,Nitrogen
Pan Type,Platinum (100 uL)
Source Files 1,C:\ProgramData\TA Instruments\TRIOS\Data\Nickel Calibration.tri
Source Files 2,C:\ProgramData\TA Instruments\TRIOS\Data\Alumel Calibration.tri
Measured 1,158.9083
Known 1,154.16
Measured 2,358.1255
Known 2,356.99
[step]
Isothermal 1.0 min
Time,Temperature,Weight,Weight
min,°C,mg,%
0.00,110.16,5.287,98.648
0.00,110.17,5.286,98.647
0.01,110.17,5.286,98.646
0.01,110.17,5.286,98.646
0.01,110.17,5.286,98.646
0.02,110.17,5.286,98.645
0.02,110.18,5.286,98.645
0.02,110.18,5.286,98.644
0.03,110.18,5.286,98.643
0.03,110.18,5.286,98.643
0.03,110.19,5.286,98.642
0.04,110.19,5.286,98.641
0.04,110.19,5.286,98.641
0.04,110.19,5.286,98.641
0.05,110.19,5.286,98.640
0.05,110.20,5.286,98.639
0.05,110.20,5.286,98.638
0.06,110.20,5.286,98.638
0.06,110.20,5.286,98.638
0.06,110.20,5.286,98.637
0.07,110.21,5.286,98.636
0.07,110.21,5.286,98.636
0.07,110.21,5.286,98.635
0.08,110.21,5.286,98.634
0.08,110.21,5.286,98.634
0.08,110.22,5.286,98.633
0.09,110.22,5.286,98.632
0.09,110.22,5.286,98.632
0.09,110.22,5.286,98.631
0.10,110.22,5.286,98.631
0.10,110.23,5.286,98.631
0.10,110.23,5.286,98.630
0.11,110.23,5.286,98.629
0.11,110.23,5.285,98.629
0.11,110.23,5.285,98.628
0.12,110.24,5.285,98.628
0.12,110.24,5.285,98.628
0.12,110.24,5.285,98.628
0.13,110.24,5.285,98.627
0.13,110.24,5.285,98.626
0.13,110.25,5.285,98.625
0.14,110.25,5.285,98.625
0.14,110.25,5.285,98.625
0.14,110.25,5.285,98.624
0.15,110.25,5.285,98.623
0.15,110.26,5.285,98.623
0.15,110.26,5.285,98.622
0.16,110.26,5.285,98.621
0.16,110.26,5.285,98.621
0.16,110.26,5.285,98.620
0.17,110.27,5.285,98.620
0.17,110.27,5.285,98.620
0.17,110.27,5.285,98.619
0.18,110.27,5.285,98.619
0.18,110.27,5.285,98.618
0.18,110.28,5.285,98.617
0.19,110.28,5.285,98.616
0.19,110.28,5.285,98.616
0.19,110.28,5.285,98.616
0.20,110.28,5.285,98.615
0.20,110.28,5.285,98.615
0.20,110.29,5.285,98.615
0.21,110.29,5.285,98.614
0.21,110.29,5.285,98.614
0.21,110.29,5.285,98.613
0.22,110.29,5.285,98.613
0.22,110.29,5.285,98.612
0.22,110.30,5.285,98.611
0.23,110.30,5.285,98.611
0.23,110.30,5.284,98.610
0.23,110.30,5.284,98.610
0.24,110.30,5.284,98.609
0.24,110.30,5.284,98.609
0.24,110.31,5.284,98.609
0.25,110.31,5.284,98.608
0.25,110.31,5.284,98.607
0.25,110.31,5.284,98.607
0.26,110.31,5.284,98.607
0.26,110.31,5.284,98.606
0.26,110.31,5.284,98.606
0.27,110.32,5.284,98.606
0.27,110.32,5.284,98.606
0.27,110.32,5.284,98.606
0.28,110.32,5.284,98.605
0.28,110.32,5.284,98.605
0.28,110.32,5.284,98.604
0.29,110.32,5.284,98.604
0.29,110.32,5.284,98.604
0.29,110.33,5.284,98.603
0.30,110.33,5.284,98.603
0.30,110.33,5.284,98.602
0.30,110.33,5.284,98.602
0.31,110.33,5.284,98.602
0.31,110.33,5.284,98.602
0.31,110.33,5.284,98.602
0.32,110.33,5.284,98.602
0.32,110.34,5.284,98.601
0.32,110.34,5.284,98.600
0.33,110.34,5.284,98.600
0.33,110.34,5.284,98.600
0.33,110.34,5.284,98.599
0.34,110.34,5.284,98.598
0.34,110.34,5.284,98.598
0.34,110.34,5.284,98.598
0.35,110.34,5.284,98.597
0.35,110.35,5.284,98.597
0.35,110.35,5.284,98.596
0.36,110.35,5.284,98.596
0.36,110.35,5.284,98.595
0.36,110.35,5.284,98.595
0.37,110.35,5.284,98.595
0.37,110.35,5.284,98.595
0.37,110.35,5.284,98.594
0.38,110.35,5.284,98.594
0.38,110.35,5.284,98.593
0.38,110.36,5.284,98.593
0.39,110.36,5.284,98.593
0.39,110.36,5.284,98.593
0.39,110.36,5.284,98.592
0.40,110.36,5.283,98.592
0.40,110.36,5.283,98.591
0.40,110.36,5.283,98.591
0.41,110.36,5.283,98.591
0.41,110.36,5.283,98.591
0.41,110.36,5.283,98.590
0.42,110.37,5.283,98.589
0.42,110.37,5.283,98.588
0.42,110.37,5.283,98.588
0.43,110.37,5.283,98.588
0.43,110.37,5.283,98.588
0.43,110.37,5.283,98.588
0.44,110.37,5.283,98.587
0.44,110.37,5.283,98.587
0.44,110.37,5.283,98.587
0.45,110.37,5.283,98.586
0.45,110.38,5.283,98.586
0.45,110.38,5.283,98.586
0.46,110.38,5.283,98.585
0.46,110.38,5.283,98.585
0.46,110.38,5.283,98.584
0.47,110.38,5.283,98.584
0.47,110.38,5.283,98.584
0.47,110.38,5.283,98.584
0.48,110.38,5.283,98.583
0.48,110.38,5.283,98.583
0.48,110.38,5.283,98.582
0.49,110.39,5.283,98.581
0.49,110.39,5.283,98.581
0.49,110.39,5.283,98.580
0.50,110.39,5.283,98.580
0.50,110.39,5.283,98.580
0.50,110.39,5.283,98.579
0.51,110.39,5.283,98.579
0.51,110.39,5.283,98.578
0.51,110.39,5.283,98.577
0.52,110.39,5.283,98.577
0.52,110.39,5.283,98.577
0.52,110.39,5.283,98.576
0.53,110.40,5.283,98.575
0.53,110.40,5.283,98.575
0.53,110.40,5.283,98.574
0.54,110.40,5.283,98.574
0.54,110.40,5.283,98.573
0.54,110.40,5.283,98.573
0.55,110.40,5.282,98.573
0.55,110.40,5.282,98.573
0.55,110.40,5.282,98.573
0.56,110.40,5.282,98.572
0.56,110.40,5.282,98.572
0.56,110.40,5.282,98.571
0.57,110.40,5.282,98.570
0.57,110.40,5.282,98.570
0.57,110.41,5.282,98.570
[...]
19.45,292.04,5.289,98.702,0.0298655
19.56,293.11,5.289,98.703,-0.0104803
19.67,294.17,5.290,98.707,0.0116417
19.77,295.24,5.290,98.705,-0.0109972
19.88,296.30,5.289,98.702,-6.86929e-4
19.99,297.37,5.289,98.699,2.74725e-3
20.09,298.44,5.289,98.700,-0.0122075
20.20,299.50,5.289,98.696,-3.84069e-3
20.31,300.57,5.289,98.697,7.51072e-3
20.41,301.64,5.289,98.695,5.03370e-3
20.52,302.70,5.289,98.693,3.53187e-3
20.63,303.76,5.289,98.699,-0.0118990
20.73,304.83,5.289,98.697,-1.37901e-4
20.84,305.89,5.289,98.696,0.0127429
20.95,306.95,5.289,98.692,-0.0120879
21.05,308.02,5.289,98.694,6.13553e-3
21.16,309.09,5.289,98.690,-5.49451e-3
21.27,310.15,5.288,98.684,-8.20806e-3
21.37,311.22,5.288,98.684,-8.02298e-3
21.48,312.28,5.288,98.681,-0.0200271
21.59,313.35,5.288,98.675,2.37231e-3
21.69,314.42,5.288,98.670,-7.55761e-3
21.80,315.49,5.288,98.669,-0.0224699
21.91,316.56,5.287,98.664,-0.0117107
22.01,317.62,5.287,98.658,-0.0149818
22.12,318.69,5.287,98.651,-5.02758e-4
22.23,319.76,5.287,98.650,-7.32601e-3
22.33,320.83,5.286,98.644,0.0318427
22.44,321.89,5.286,98.638,-0.0171703
22.55,322.96,5.285,98.629,2.89046e-3
22.65,324.02,5.285,98.621,-0.0231403
22.76,325.09,5.285,98.614,-7.61468e-3
22.87,326.15,5.285,98.612,0.0165751
22.97,327.22,5.284,98.600,1.23524e-3
23.08,328.28,5.283,98.591,-0.0130775
23.19,329.35,5.283,98.578,-0.0204488
23.29,330.42,5.282,98.568,-0.0180403
23.40,331.49,5.281,98.552,2.56269e-3
23.51,332.55,5.281,98.536,-0.0110864
23.61,333.62,5.280,98.519,5.49601e-3
23.72,334.68,5.279,98.506,-0.0149926
23.83,335.75,5.278,98.485,-0.0211735
23.93,336.81,5.277,98.465,-0.0288772
24.04,337.88,5.275,98.442,-0.0244963
24.15,338.95,5.274,98.419,-0.0132569
24.25,340.01,5.273,98.389,-0.0147069
24.36,341.08,5.271,98.359,-0.0317431
24.47,342.14,5.269,98.325,-0.0332982
24.57,343.21,5.267,98.289,-0.0364342
24.68,344.27,5.265,98.248,-0.0338334
24.79,345.34,5.263,98.201,-0.0440981
24.89,346.41,5.260,98.148,-0.0537394
25.00,347.47,5.256,98.087,-0.0567151
25.11,348.54,5.253,98.020,-0.0567613
25.21,349.60,5.248,97.936,-0.0856102
25.32,350.67,5.243,97.843,-0.0993209
25.43,351.73,5.237,97.732,-0.0887820
25.53,352.80,5.231,97.610,-0.106607
25.64,353.87,5.224,97.475,-0.117217
25.75,354.93,5.216,97.326,-0.127565
25.85,356.00,5.206,97.139,-0.116529
25.96,357.06,5.197,96.973,-0.145928
26.07,358.13,5.186,96.775,-0.231364
26.17,359.19,5.175,96.569,-0.133634
26.28,360.26,5.162,96.330,-0.132529
26.39,361.33,5.151,96.114,-0.162176
26.49,362.39,5.138,95.873,-0.228356
26.60,363.46,5.122,95.587,-0.304066
26.71,364.52,5.107,95.304,-0.175316
26.81,365.59,5.091,95.001,-0.326750
26.92,366.66,5.074,94.682,-0.270035
27.03,367.72,5.058,94.388,-0.424798
27.13,368.79,5.042,94.080,-0.331445
27.24,369.86,5.024,93.744,-0.314106
27.35,370.92,5.005,93.391,-0.284959
27.45,371.99,4.985,93.029,-0.542758
27.56,373.05,4.964,92.633,-0.176603
27.67,374.12,4.944,92.261,-0.334622
27.77,375.18,4.922,91.844,-0.232238
27.88,376.24,4.901,91.462,-0.345761
27.99,377.31,4.878,91.020,-0.144342
28.09,378.37,4.855,90.601,-0.293982
28.20,379.44,4.831,90.140,-0.255454
28.31,380.50,4.807,89.696,-0.636218
28.41,381.57,4.783,89.245,-0.577030
28.52,382.64,4.755,88.732,-1.02454
28.63,383.71,4.728,88.217,-0.533770
28.73,384.77,4.702,87.746,-0.579128
28.84,385.84,4.672,87.180,-0.630976
28.95,386.91,4.645,86.669,-0.485518
29.05,387.97,4.614,86.092,-0.471059
29.16,389.04,4.585,85.564,-0.922649
29.27,390.11,4.555,84.995,-0.461059
29.37,391.17,4.521,84.371,-1.20264
29.48,392.24,4.488,83.749,-0.642228
29.59,393.31,4.457,83.161,-0.495036
29.69,394.38,4.422,82.520,-0.232916
29.80,395.44,4.386,81.849,-0.355555
29.91,396.51,4.351,81.193,-0.656655
29.95,396.95,4.336,80.905,-0.645255