Folder: CH302/instrument_data/TGA (part 5)

File: Co(phen)2(SCN)2 RT-6001172022.csv
Filename,Co(phen)2(SCN)2 RT-6001172022
Instrument name,5500-0566 (192.168.10.4)
Operator,Adam K
rundate,11/7/2022
Sample name,Co(phen)2(SCN)2 RT-600
proceduresegments,Equilibrate 110.00 °C; Isothermal 1.0 min; Ramp 20.00 °C/min to 600.00 °C
[File Parameters]
Run date,11/7/2022 3:24:49 PM
Trios version,5.3.0.48151
Original File Name,C:\ProgramData\TA Instruments\TRIOS\Data\CH302_B3_22_AK\Co(phen)2(SCN)2 RT-6001172022.tri
Current File Name,C:/ProgramData/TA Instruments/TRIOS/Data/CH302_B3_22_AK/Co(phen)2(SCN)2 RT-6001172022.tri
User at run start,CH-CBWNNF3-0721\ChemLocal
[Procedure]
Procedure Name,
Sample Name,Co(phen)2(SCN)2 RT-600
Pan Number,1
Sample Mass,3.496 mg
Pan Type,Aluminum
Comments,
Project Name,Spin Crossover
Operator,Adam K
Test,Custom
Skip Weight Stabilization,False
Sample mass pre-weigh,Not Available
Stop on Gas Flow Error,No
[Signal List]
Signal #1,Time (min)
Signal #2,Temperature (°C)
Signal #3,Weight (mg)
Signal #4,Temperature Difference (°C)
Signal #5,Sample Purge (mL/min)
Signal #6,Balance Purge (mL/min)
Signal #7,Set Point Temperature (°C)
Signal #8,Power Delivered (W)
Signal #9,Ramp Rate (°C/min)
[Configuration]
Company Name,localcc
Instrument Name,5500-0566
Instrument Type,TGA5500
Serial Number,5500-0566
IP,192.168.10.4
Location of Instrument,Olin Hall Rm 364
DisplayType,TianmaV2
Sample Interval ,0.1 s/pt
Gas 1,Nitrogen
Gas 2,Air
Selected Gas Channel,1
MTGA HiRes Licensed,Yes
[Versions]
Common IDD Version,1
Cortex Version,VER 2.1.2.60
Driver,5.0.0.6
GDM Version,1.2.1.2
TouchscreenVersion,1.0.3.1795
PCU Version,1.2.0.15
Transducer Version,1.1.0.32
[Experiment Logs]
Experiment Log Entry # 1,Equilibrate Segment 110 (C) Started
Experiment Log Entry # 3,Isothermal Segment 1 min started
Experiment Log Entry # 5,Ramp Segment 20 C/min to 600 C Started
[Method Log]
Method Log Entry # 1,Equilibrate 110 °C
Method Log Entry # 2,Isothermal 1 minutes
Method Log Entry # 3,(Ramp 1974) Ramp 20 °C/minute to 600 °C
[Weight Calibration]
Date Applied,7/20/2022 10:21:44 AM
Empty Pan Number,23
Empty Pan Weight,341.358 mg
Low Reference Weight Pan Number,24
Low Reference Weight,442.546 mg
High Reference Weight Pan Number,25
High Reference Weight,"1,243.774 mg"
Low Gain Meter Reading,9.9772E-006 mg/count
High Gain Meter Reading,7.9459E-005 mg/count
Low Meter Offset,31.8759 mg
High Meter Offset,613.7978 mg
[Curie Calibration]
Date Applied,8/11/2021 12:40:46 PM
Description,From 256.990 °C to 456.990 °C at 20.000°C/min
Gas Type,Nitrogen
Pan Type,Platinum (100 uL)
Source Files 1,C:\ProgramData\TA Instruments\TRIOS\Data\Nickel Calibration.tri
Source Files 2,C:\ProgramData\TA Instruments\TRIOS\Data\Alumel Calibration.tri
Measured 1,158.9083
Known 1,154.16
Measured 2,358.1255
Known 2,356.99
[step]
Isothermal 1.0 min
Time,Temperature,Weight,Weight
min,°C,mg,%
0.00,110.15,3.447,98.603
0.00,110.15,3.447,98.603
0.01,110.16,3.447,98.602
0.01,110.16,3.447,98.602
0.01,110.16,3.447,98.601
0.02,110.16,3.447,98.601
0.02,110.17,3.447,98.600
0.02,110.17,3.447,98.600
0.03,110.17,3.447,98.600
0.03,110.17,3.447,98.599
0.03,110.18,3.447,98.598
0.04,110.18,3.447,98.598
0.04,110.18,3.447,98.597
0.04,110.18,3.447,98.597
0.05,110.18,3.447,98.596
0.05,110.19,3.447,98.596
0.05,110.19,3.447,98.595
0.06,110.19,3.447,98.595
0.06,110.19,3.447,98.595
0.06,110.20,3.447,98.595
0.07,110.20,3.447,98.594
0.07,110.20,3.447,98.594
0.07,110.20,3.447,98.594
0.08,110.21,3.447,98.593
0.08,110.21,3.447,98.593
0.08,110.21,3.447,98.593
0.09,110.21,3.447,98.592
0.09,110.21,3.447,98.591
0.09,110.22,3.447,98.591
0.10,110.22,3.447,98.591
0.10,110.22,3.447,98.590
0.10,110.22,3.447,98.590
0.11,110.23,3.447,98.589
0.11,110.23,3.447,98.589
0.11,110.23,3.447,98.588
0.12,110.23,3.447,98.587
0.12,110.23,3.447,98.586
0.12,110.24,3.447,98.586
0.13,110.24,3.447,98.586
0.13,110.24,3.447,98.586
0.13,110.24,3.446,98.586
0.14,110.24,3.446,98.585
0.14,110.25,3.446,98.585
0.14,110.25,3.446,98.585
0.15,110.25,3.446,98.584
0.15,110.25,3.446,98.583
0.15,110.25,3.446,98.583
0.16,110.25,3.446,98.583
0.16,110.26,3.446,98.583
0.16,110.26,3.446,98.583
0.17,110.26,3.446,98.582
0.17,110.26,3.446,98.581
0.17,110.26,3.446,98.581
0.18,110.27,3.446,98.581
0.18,110.27,3.446,98.581
0.18,110.27,3.446,98.581
0.19,110.27,3.446,98.581
0.19,110.27,3.446,98.580
0.19,110.27,3.446,98.580
0.20,110.28,3.446,98.580
0.20,110.28,3.446,98.579
0.20,110.28,3.446,98.579
0.21,110.28,3.446,98.579
0.21,110.28,3.446,98.579
0.21,110.28,3.446,98.578
0.22,110.29,3.446,98.579
0.22,110.29,3.446,98.578
0.22,110.29,3.446,98.578
0.23,110.29,3.446,98.578
0.23,110.29,3.446,98.577
0.23,110.29,3.446,98.577
0.24,110.30,3.446,98.576
0.24,110.30,3.446,98.576
0.24,110.30,3.446,98.575
0.25,110.30,3.446,98.575
0.25,110.30,3.446,98.575
0.25,110.30,3.446,98.575
0.26,110.30,3.446,98.575
0.26,110.31,3.446,98.575
0.26,110.31,3.446,98.575
0.27,110.31,3.446,98.574
0.27,110.31,3.446,98.574
0.27,110.31,3.446,98.573
0.28,110.31,3.446,98.573
0.28,110.31,3.446,98.573
0.28,110.32,3.446,98.572
0.29,110.32,3.446,98.571
0.29,110.32,3.446,98.571
0.29,110.32,3.446,98.571
0.30,110.32,3.446,98.571
0.30,110.32,3.446,98.571
0.30,110.32,3.446,98.571
0.31,110.33,3.446,98.571
0.31,110.33,3.446,98.570
0.31,110.33,3.446,98.570
0.32,110.33,3.446,98.569
0.32,110.33,3.446,98.569
0.32,110.33,3.446,98.568
0.33,110.33,3.446,98.568
0.33,110.33,3.446,98.568
0.33,110.34,3.446,98.568
0.34,110.34,3.446,98.568
0.34,110.34,3.446,98.568
0.34,110.34,3.446,98.567
0.35,110.34,3.446,98.567
0.35,110.34,3.446,98.567
0.35,110.34,3.446,98.566
0.36,110.34,3.446,98.566
0.36,110.35,3.446,98.566
0.36,110.35,3.446,98.565
0.37,110.35,3.446,98.564
0.37,110.35,3.446,98.563
0.37,110.35,3.446,98.563
0.38,110.35,3.446,98.563
0.38,110.35,3.446,98.564
0.38,110.35,3.446,98.564
0.39,110.35,3.446,98.564
0.39,110.35,3.446,98.563
0.39,110.36,3.446,98.563
0.40,110.36,3.446,98.562
0.40,110.36,3.446,98.561
0.40,110.36,3.446,98.560
0.41,110.36,3.446,98.561
0.41,110.36,3.446,98.560
0.41,110.36,3.446,98.560
0.42,110.36,3.446,98.560
0.42,110.36,3.446,98.560
0.42,110.36,3.446,98.559
0.43,110.36,3.446,98.559
0.43,110.37,3.446,98.559
0.43,110.37,3.446,98.559
0.44,110.37,3.446,98.558
0.44,110.37,3.446,98.558
0.44,110.37,3.446,98.558
0.45,110.37,3.445,98.557
0.45,110.37,3.445,98.557
0.45,110.37,3.445,98.557
0.46,110.37,3.445,98.557
0.46,110.37,3.445,98.557
0.46,110.37,3.445,98.557
0.47,110.37,3.445,98.557
0.47,110.38,3.445,98.556
0.47,110.38,3.445,98.556
0.48,110.38,3.445,98.556
0.48,110.38,3.445,98.555
0.48,110.38,3.445,98.555
0.49,110.38,3.445,98.555
0.49,110.38,3.445,98.555
0.49,110.38,3.445,98.554
0.50,110.38,3.445,98.554
0.50,110.38,3.445,98.554
0.50,110.38,3.445,98.553
0.51,110.38,3.445,98.553
0.51,110.38,3.445,98.553
0.51,110.38,3.445,98.553
0.52,110.39,3.445,98.553
0.52,110.39,3.445,98.553
0.52,110.39,3.445,98.553
0.53,110.39,3.445,98.553
0.53,110.39,3.445,98.552
0.53,110.39,3.445,98.552
0.54,110.39,3.445,98.552
0.54,110.39,3.445,98.552
0.54,110.39,3.445,98.552
0.55,110.39,3.445,98.552
0.55,110.39,3.445,98.551
0.55,110.39,3.445,98.552
0.56,110.39,3.445,98.552
0.56,110.39,3.445,98.551
0.56,110.39,3.445,98.551
0.57,110.39,3.445,98.551
0.57,110.40,3.445,98.550
0.57,110.40,3.445,98.550
0.58,110.40,3.445,98.549
0.58,110.40,3.445,98.549
0.58,110.40,3.445,98.549
0.59,110.40,3.445,98.549
0.59,110.40,3.445,98.549
0.59,110.40,3.445,98.550
0.60,110.40,3.445,98.549
0.60,110.40,3.445,98.549
[...]
16.66,417.95,2.355,67.355,-0.549323
16.75,419.75,2.293,65.603,-1.05875
16.84,421.55,2.232,63.842,-1.13064
16.93,423.35,2.164,61.905,-0.496025
17.02,425.15,2.097,59.990,-1.17549
17.11,426.95,2.028,58.006,-0.914448
17.20,428.74,1.957,55.972,-1.47835
17.29,430.54,1.884,53.896,-1.06353
17.38,432.34,1.812,51.818,-1.00436
17.47,434.14,1.736,49.656,-1.58457
17.56,435.94,1.661,47.511,-1.23858
17.65,437.73,1.591,45.506,-1.64986
17.74,439.53,1.522,43.536,-0.828293
17.83,441.33,1.469,42.009,-0.171556
17.92,443.13,1.440,41.183,-0.294401
18.01,444.93,1.428,40.853,-0.108393
18.10,446.73,1.421,40.657,-0.123121
18.19,448.52,1.415,40.465,-0.0835777
18.28,450.32,1.409,40.301,-0.0785756
18.37,452.12,1.403,40.146,-0.0787191
18.46,453.92,1.398,39.994,-0.0585930
18.55,455.72,1.394,39.866,-0.0587648
18.64,457.52,1.390,39.747,-0.0678840
18.73,459.31,1.386,39.638,-0.0342520
18.82,461.11,1.382,39.528,-0.0507440
18.91,462.91,1.379,39.434,-0.0699015
19.00,464.71,1.376,39.349,-0.0476386
19.09,466.51,1.373,39.277,-0.0433454
19.18,468.31,1.370,39.200,-0.0447344
19.27,470.11,1.367,39.112,-0.0388035
19.36,471.91,1.365,39.036,-0.0325486
19.45,473.70,1.362,38.957,-0.0438470
19.54,475.50,1.359,38.875,-0.0505500
19.63,477.30,1.356,38.796,-0.0420522
19.72,479.10,1.354,38.716,-0.0346675
19.81,480.89,1.351,38.634,-0.0385092
19.90,482.69,1.348,38.554,-0.0365491
19.99,484.49,1.345,38.469,-0.0345678
20.08,486.29,1.342,38.377,-0.0763966
20.17,488.08,1.338,38.264,-0.0538693
20.26,489.88,1.334,38.164,-0.0714284
20.35,491.68,1.331,38.062,-0.0843652
20.44,493.48,1.326,37.920,-0.0686194
20.53,495.28,1.321,37.778,-0.0532081
20.62,497.07,1.316,37.639,-0.0654358
20.71,498.87,1.310,37.483,-0.0577499
20.80,500.67,1.306,37.346,-0.0642659
20.89,502.46,1.300,37.191,-0.0624476
20.98,504.26,1.295,37.039,-0.198897
21.07,506.06,1.289,36.875,-0.123712
21.16,507.86,1.283,36.698,-0.0713566
21.25,509.65,1.277,36.520,-0.0500772
21.34,511.45,1.271,36.355,-0.0621677
21.43,513.25,1.266,36.208,-0.110321
21.52,515.05,1.261,36.080,-0.0573901
21.61,516.84,1.258,35.975,-0.0540409
21.70,518.64,1.254,35.858,-0.0394961
21.79,520.44,1.250,35.754,-0.0340954
21.88,522.23,1.246,35.642,-0.0858967
21.97,524.03,1.242,35.522,-0.0837729
22.06,525.83,1.237,35.375,-0.0625457
22.15,527.63,1.233,35.261,-0.0581816
22.24,529.43,1.228,35.119,-0.0396425
22.33,531.22,1.222,34.955,-0.0522327
22.42,533.02,1.217,34.823,-0.126138
22.51,534.82,1.212,34.675,-0.0800344
22.60,536.61,1.207,34.516,-0.0567720
22.69,538.41,1.200,34.319,-0.0798146
22.78,540.20,1.194,34.156,-0.0596330
22.87,542.00,1.188,33.976,-0.0868533
22.96,543.79,1.182,33.812,-0.0900459
23.05,545.59,1.175,33.620,-0.0805524
23.14,547.39,1.168,33.423,-0.0783142
23.23,549.19,1.161,33.223,-0.0720986
23.32,550.98,1.155,33.050,-0.0996674
23.41,552.78,1.149,32.872,-0.148582
23.50,554.58,1.142,32.658,-0.121717
23.59,556.37,1.135,32.476,-0.0937216
23.68,558.17,1.128,32.260,-0.145459
23.77,559.97,1.121,32.070,-0.150041
23.86,561.76,1.114,31.859,-0.0588131
23.95,563.56,1.107,31.656,-0.204171
24.04,565.36,1.099,31.433,-0.133331
24.13,567.15,1.092,31.241,-0.109726
24.22,568.95,1.085,31.036,-0.151537
24.31,570.75,1.079,30.866,-0.164576
24.40,572.54,1.072,30.656,-0.134200
24.49,574.34,1.065,30.473,-0.103324
24.58,576.13,1.059,30.278,-0.0934145
24.67,577.93,1.052,30.079,-0.0641283
24.76,579.73,1.044,29.875,-0.159901
24.85,581.52,1.039,29.714,-0.0718419
24.94,583.32,1.031,29.498,-0.0756255
25.03,585.11,1.024,29.298,-0.0968881
25.12,586.91,1.019,29.148,-0.0760378
25.21,588.71,1.013,28.988,-0.118366
25.30,590.50,1.007,28.816,-0.124770
25.39,592.30,1.000,28.613,-0.120625
25.48,594.09,0.994,28.444,-0.0910669
25.57,595.89,0.987,28.226,-0.112736